{
    "$schema": "http://json-schema.org/draft-07/schema#",
    "type": "array",
    "items": {
      "type": "object",
      "properties": {
        "ID": { "type": "integer" },
        "STUDYID": { "type": ["string", "null"] },
        "SUBJID": { "type": "integer" },
        "USUBJID": { "type": ["string", "null"], "pattern": "^[0-9]{2}-[0-9]{3}-[0-9]{4}$" },
        "TRTP": {
          "type": ["string", "null"],
          "enum": ["Placebo", "Xanomeline Low Dose", "Xanomeline High Dose"]
        },
        "TRTPN": { "type": ["number", "null"] },
        "TRTA": {
          "type": ["string", "null"],
          "enum": ["Placebo", "Xanomeline Low Dose", "Xanomeline High Dose"]
        },
        "TRTAN": { "type": ["number", "null"] },
        "TRTSDT": { "type": ["number", "null"] },
        "TRTEDT": { "type": ["number", "null"] },
        "AGE": { "type": ["number", "null"], "minimum": 0, "maximum": 150 },
        "AGEGR1": { "type": ["string", "null"] },
        "AGEGR1N": { "type": ["number", "null"] },
        "RACE": { "type": ["string", "null"] },
        "RACEN": { "type": ["number", "null"] },
        "SEX": { "type": ["string", "null"], "enum": ["M","F"] },
        "COMP24FL": { "type": ["string", "null"] },
        "DSRAEFL": { "type": ["string", "null"] },
        "SAFFL": { "type": ["string", "null"] },
        "AVISIT": { "type": ["string", "null"] },
        "AVISITN": { "type": ["number", "null"] },
        "ADY": { "type": ["number", "null"] },
        "ADT": { "type": ["number", "null"] },
        "VISIT": { "type": ["string", "null"] },
        "VISITNUM": { "type": ["number", "null"], "minimum": 0, "maximum": 14 },
        "PARAM": { "type": ["string", "null"] },
        "PARAMCD": { "type": ["string", "null"] },
        "PARAMN": { "type": ["number", "null"] },
        "PARCAT1": { "type": ["string", "null"] },
        "AVAL": { "type": ["number", "null"] },
        "BASE": { "type": ["number", "null"] },
        "CHG": { "type": ["number", "null"] },
        "A1LO": { "type": ["number", "null"] },
        "A1HI": { "type": ["number", "null"] },
        "R2A1LO": { "type": ["number", "null"] },
        "R2A1HI": { "type": ["number", "null"] },
        "BR2A1LO": { "type": ["number", "null"] },
        "BR2A1HI": { "type": ["number", "null"] },
        "ANL01FL": { "type": ["string", "null"] },
        "ALBTRVAL": { "type": ["number", "null"] },
        "ANRIND": { "type": ["string", "null"] },
        "BNRIND": { "type": ["string", "null"] },
        "ABLFL": { "type": ["string", "null"] },
        "AENTMTFL": { "type": ["string", "null"] },
        "LBSEQ": { "type": ["number", "null"] },
        "LBNRIND": { "type": ["string", "null"] },
        "LBSTRESN": { "type": ["number", "null"] }
      },
      "required": [
        "ID",
        "STUDYID",
        "SUBJID",
        "USUBJID",
        "TRTP",
        "TRTPN",
        "TRTA",
        "TRTAN",
        "TRTSDT",
        "TRTEDT",
        "AGE",
        "AGEGR1",
        "AGEGR1N",
        "RACE",
        "RACEN",
        "SEX",
        "COMP24FL",
        "SAFFL",
        "AVISIT",
        "AVISITN",
        "ADY",
        "ADT",
        "VISIT",
        "VISITNUM",
        "PARAM",
        "PARAMCD",
        "PARAMN",
        "PARCAT1",
        "AVAL"
      ]
    }
  }