{
    "$schema": "http://json-schema.org/draft-07/schema#",
    "type": "array",
    "items": {
      "type": "object",
      "properties": {
      "ID": { "type": "integer" },
      "STUDYID": { "type": "string" },
      "SUBJID": { "type": "integer" },
      "USUBJID": { "type": "string", "pattern": "^[0-9]{2}-[0-9]{3}-[0-9]{4}$"},
      "SITEID": { "type": "integer" },
      "SITEGR1": { "type": "integer" },
      "ARM": { "type": "string" },
      "TRT01P": { "type": "string" },
      "TRT01PN": { "type": "number" },
      "TRT01A": { "type": "string" },
      "TRT01AN": { "type": "number" },
      "TRTSDT": { "type": "number" },
      "TRTEDT": { "type": "number" },
      "TRTDURD": { "type": "number" },
      "AVGDD": { "type": "number" },
      "CUMDOSE": { "type": "number" },
      "AGE": { "type": "number", "minimum": 0, "maximum": 150 },
      "AGEGR1": { "type": "string" },
      "AGEGR1N": { "type": "number" },
      "AGEU": { "type": "string" },
      "RACE": { "type": "string" },
      "RACEN": { "type": "number" },
      "SEX": { "type": "string", "enum": ["M", "F"] },
      "ETHNIC": { "type": "string" },
      "SAFFL": { "type": "string" },
      "ITTFL": { "type": "string" },
      "EFFFL": { "type": "string" },
      "COMP8FL": { "type": "string" },
      "COMP16FL": { "type": "string" },
      "COMP24FL": { "type": "string" },
      "DISCONFL": { "type": ["string", "null"] },
      "DSRAEFL": { "type": ["string", "null"] },
      "DTHFL": { "type": ["string", "null"] },
      "BMIBL": { "type": ["number", "null"]},
      "BMIBLGR1": { "type": "string" },
      "HEIGHTBL": { "type": ["number", "null"]},
      "WEIGHTBL": { "type": ["number", "null"]},
      "EDUCLVL": { "type": "number" },
      "DISONSDT": { "type": "number" },
      "DURDIS": { "type": "number" },
      "DURDSGR1": { "type": "string" },
      "VISIT1DT": { "type": "number" },
      "RFSTDTC": { "type": "string", "format": "date" },
      "RFENDTC": { "type": "string", "format": "date" },
      "VISNUMEN": { "type": "number" },
      "RFENDT": { "type": "number" },
      "DCDECOD": { "type": "string" },
      "EOSSTT": { "type": "string" },
      "DCSREAS": { "type": ["string", "null"] },
      "MMSETOT": { "type": "number" }
      },
      "required": [
        "ID",
        "STUDYID",
        "SUBJID",
        "USUBJID",
        "AGE",
        "AGEGR1",
        "AGEGR1N",
        "RACE",
        "RACEN",
        "SEX"
      ]
    }
  }