ID,STUDYID,USUBJID,SUBJID,SITEID,SITEGR1,ARM,TRT01P,TRT01PN,TRT01A,TRT01AN,TRTSDT,TRTEDT,TRTDURD,AVGDD,CUMDOSE,AGE,AGEGR1,AGEGR1N,AGEU,RACE,RACEN,SEX,ETHNIC,SAFFL,ITTFL,EFFFL,COMP8FL,COMP16FL,COMP24FL,DISCONFL,DSRAEFL,DTHFL,BMIBL,BMIBLGR1,HEIGHTBL,WEIGHTBL,EDUCLVL,DISONSDT,DURDIS,DURDSGR1,VISIT1DT,RFSTDTC,RFENDTC,VISNUMEN,RFENDT,DCDECOD,EOSSTT,DCSREAS,MMSETOT
0,CDISCPILOT01,01-701-1015,1015,701,701,Placebo,Placebo,5.397605346934028e-79,Placebo,5.397605346934028e-79,19725.0,19906.0,182.0,5.397605346934028e-79,5.397605346934028e-79,63.0,<65,1.0,YEARS,WHITE,1.0,F,HISPANIC OR LATINO,Y,Y,Y,Y,Y,Y,,,,25.1,25-<30,147.3,54.4,16.0,18382.0,43.9,>=12,19718.0,2014-01-02,2014-07-02,12.0,19906.0,COMPLETED,COMPLETED,,23.0
1,CDISCPILOT01,01-701-1023,1023,701,701,Placebo,Placebo,5.397605346934028e-79,Placebo,5.397605346934028e-79,19210.0,19237.0,28.0,5.397605346934028e-79,5.397605346934028e-79,64.0,<65,1.0,YEARS,WHITE,1.0,M,HISPANIC OR LATINO,Y,Y,Y,N,N,N,Y,Y,,30.4,>=30,162.6,80.3,14.0,16871.0,76.4,>=12,19196.0,2012-08-05,2012-09-02,5.0,19238.0,ADVERSE EVENT,DISCONTINUED,Adverse Event,23.0
2,CDISCPILOT01,01-701-1028,1028,701,701,Xanomeline High Dose,Xanomeline High Dose,81.0,Xanomeline High Dose,81.0,19558.0,19737.0,180.0,77.7,13986.0,71.0,65-80,2.0,YEARS,WHITE,1.0,M,NOT HISPANIC OR LATINO,Y,Y,Y,Y,Y,Y,,,,31.4,>=30,177.8,99.3,16.0,18247.0,42.8,>=12,19550.0,2013-07-19,2014-01-14,12.0,19737.0,COMPLETED,COMPLETED,,23.0
3,CDISCPILOT01,01-701-1033,1033,701,701,Xanomeline Low Dose,Xanomeline Low Dose,54.0,Xanomeline Low Dose,54.0,19800.0,19813.0,14.0,54.0,756.0,74.0,65-80,2.0,YEARS,WHITE,1.0,M,NOT HISPANIC OR LATINO,Y,Y,Y,N,N,N,Y,,,28.8,25-<30,175.3,88.5,12.0,18111.0,55.3,>=12,19792.0,2014-03-18,2014-04-14,5.0,19827.0,STUDY TERMINATED BY SPONSOR,DISCONTINUED,Sponsor Decision,23.0
4,CDISCPILOT01,01-701-1034,1034,701,701,Xanomeline High Dose,Xanomeline High Dose,81.0,Xanomeline High Dose,81.0,19905.0,20087.0,183.0,76.9,14067.0,77.0,65-80,2.0,YEARS,WHITE,1.0,F,NOT HISPANIC OR LATINO,Y,Y,Y,Y,Y,Y,,,,26.1,25-<30,154.9,62.6,9.0,18899.0,32.9,>=12,19898.0,2014-07-01,2014-12-30,12.0,20087.0,COMPLETED,COMPLETED,,21.0
5,CDISCPILOT01,01-701-1047,1047,701,701,Placebo,Placebo,5.397605346934028e-79,Placebo,5.397605346934028e-79,19401.0,19426.0,26.0,5.397605346934028e-79,5.397605346934028e-79,85.0,>80,3.0,YEARS,WHITE,1.0,F,NOT HISPANIC OR LATINO,Y,Y,Y,N,N,N,Y,Y,,30.4,>=30,148.6,67.1,8.0,18104.0,42.0,>=12,19380.0,2013-02-12,2013-03-29,6.0,19446.0,ADVERSE EVENT,DISCONTINUED,Adverse Event,23.0
6,CDISCPILOT01,01-701-1097,1097,701,701,Xanomeline Low Dose,Xanomeline Low Dose,54.0,Xanomeline Low Dose,54.0,19724.0,19913.0,190.0,54.0,10260.0,68.0,65-80,2.0,YEARS,WHITE,1.0,M,NOT HISPANIC OR LATINO,Y,Y,Y,Y,Y,Y,,,,27.3,25-<30,168.9,78.0,18.0,16701.0,99.1,>=12,19715.0,2014-01-01,2014-07-09,12.0,19913.0,COMPLETED,COMPLETED,,10.0
7,CDISCPILOT01,01-701-1111,1111,701,701,Xanomeline Low Dose,Xanomeline Low Dose,54.0,Xanomeline Low Dose,54.0,19243.0,19252.0,10.0,54.0,540.0,81.0,>80,3.0,YEARS,WHITE,1.0,F,NOT HISPANIC OR LATINO,Y,Y,Y,N,N,N,Y,Y,,23.9,<25,158.2,59.9,22.0,17991.0,40.7,>=12,19230.0,2012-09-07,2012-09-17,4.0,19253.0,ADVERSE EVENT,DISCONTINUED,Adverse Event,23.0
8,CDISCPILOT01,01-701-1115,1115,701,701,Xanomeline Low Dose,Xanomeline Low Dose,54.0,Xanomeline Low Dose,54.0,19327.0,19381.0,55.0,54.0,2970.0,84.0,>80,3.0,YEARS,WHITE,1.0,M,NOT HISPANIC OR LATINO,Y,Y,Y,Y,N,N,Y,Y,,23.9,<25,181.6,78.9,12.0,16219.0,101.9,>=12,19320.0,2012-11-30,2013-01-23,8.0,19381.0,ADVERSE EVENT,DISCONTINUED,Adverse Event,20.0
9,CDISCPILOT01,01-701-1118,1118,701,701,Placebo,Placebo,5.397605346934028e-79,Placebo,5.397605346934028e-79,19794.0,19975.0,182.0,5.397605346934028e-79,5.397605346934028e-79,52.0,<65,1.0,YEARS,WHITE,1.0,M,NOT HISPANIC OR LATINO,Y,Y,Y,Y,Y,Y,,,,21.9,<25,180.3,71.2,14.0,18437.0,44.2,>=12,19781.0,2014-03-12,2014-09-09,12.0,19975.0,COMPLETED,COMPLETED,,20.0
10,CDISCPILOT01,01-701-1130,1130,701,701,Placebo,Placebo,5.397605346934028e-79,Placebo,5.397605346934028e-79,19769.0,19951.0,183.0,5.397605346934028e-79,5.397605346934028e-79,84.0,>80,3.0,YEARS,WHITE,1.0,M,NOT HISPANIC OR LATINO,Y,Y,Y,Y,Y,Y,,,,27.6,25-<30,169.7,79.4,12.0,18404.0,44.7,>=12,19763.0,2014-02-15,2014-08-16,12.0,19951.0,COMPLETED,COMPLETED,,19.0
11,CDISCPILOT01,01-701-1133,1133,701,701,Xanomeline High Dose,Xanomeline High Dose,81.0,Xanomeline High Dose,81.0,19294.0,19476.0,183.0,77.2,14121.0,81.0,>80,3.0,YEARS,WHITE,1.0,F,NOT HISPANIC OR LATINO,Y,Y,Y,Y,Y,Y,,,,28.1,25-<30,162.6,74.4,10.0,18332.0,31.5,>=12,19289.0,2012-10-28,2013-04-29,12.0,19477.0,COMPLETED,COMPLETED,,21.0
12,CDISCPILOT01,01-701-1146,1146,701,701,Xanomeline High Dose,Xanomeline High Dose,81.0,Xanomeline High Dose,81.0,19498.0,19535.0,38.0,70.3,2673.0,75.0,65-80,2.0,YEARS,WHITE,1.0,F,NOT HISPANIC OR LATINO,Y,Y,Y,N,N,N,Y,Y,,24.9,<25,147.3,54.0,16.0,18218.0,41.7,>=12,19485.0,2013-05-20,2013-06-30,7.0,19539.0,ADVERSE EVENT,DISCONTINUED,Adverse Event,22.0
13,CDISCPILOT01,01-701-1148,1148,701,701,Xanomeline High Dose,Xanomeline High Dose,81.0,Xanomeline High Dose,81.0,19593.0,19774.0,182.0,77.1,14040.0,57.0,<65,1.0,YEARS,WHITE,1.0,M,NOT HISPANIC OR LATINO,Y,Y,Y,Y,Y,Y,,,,28.3,25-<30,175.3,87.1,15.0,18608.0,32.1,>=12,19584.0,2013-08-23,2014-02-20,12.0,19774.0,COMPLETED,COMPLETED,,21.0
14,CDISCPILOT01,01-701-1153,1153,701,701,Placebo,Placebo,5.397605346934028e-79,Placebo,5.397605346934028e-79,19624.0,19798.0,175.0,5.397605346934028e-79,5.397605346934028e-79,79.0,65-80,2.0,YEARS,WHITE,1.0,F,NOT HISPANIC OR LATINO,Y,Y,Y,Y,Y,Y,,,,23.8,<25,156.2,58.1,6.0,16569.0,99.8,>=12,19607.0,2013-09-23,2014-04-01,12.0,19814.0,COMPLETED,COMPLETED,,10.0
15,CDISCPILOT01,01-701-1180,1180,701,701,Xanomeline High Dose,Xanomeline High Dose,81.0,Xanomeline High Dose,81.0,19401.0,19435.0,35.0,70.2,2457.0,56.0,<65,1.0,YEARS,WHITE,1.0,M,NOT HISPANIC OR LATINO,Y,Y,Y,N,N,N,Y,Y,,27.6,25-<30,180.3,89.8,16.0,17796.0,52.3,>=12,19386.0,2013-02-12,2013-03-23,7.0,19440.0,ADVERSE EVENT,DISCONTINUED,Adverse Event,19.0
16,CDISCPILOT01,01-701-1181,1181,701,701,Xanomeline High Dose,Xanomeline High Dose,81.0,Xanomeline High Dose,81.0,19697.0,19701.0,5.0,54.0,270.0,79.0,65-80,2.0,YEARS,WHITE,1.0,F,NOT HISPANIC OR LATINO,Y,Y,Y,N,N,N,Y,Y,,27.8,25-<30,154.9,66.7,15.0,17770.0,63.0,>=12,19688.0,2013-12-05,2013-12-12,4.0,19704.0,ADVERSE EVENT,DISCONTINUED,Adverse Event,10.0
17,CDISCPILOT01,01-701-1188,1188,701,701,Xanomeline Low Dose,Xanomeline Low Dose,54.0,Xanomeline Low Dose,54.0,19404.0,19441.0,38.0,54.0,2052.0,71.0,65-80,2.0,YEARS,WHITE,1.0,M,NOT HISPANIC OR LATINO,Y,Y,Y,N,N,N,Y,Y,,32.0,>=30,177.8,101.2,16.0,16693.0,88.7,>=12,19392.0,2013-02-15,2013-03-25,7.0,19442.0,ADVERSE EVENT,DISCONTINUED,Adverse Event,23.0
18,CDISCPILOT01,01-701-1192,1192,701,701,Xanomeline Low Dose,Xanomeline Low Dose,54.0,Xanomeline Low Dose,54.0,19196.0,19378.0,183.0,54.0,9882.0,80.0,65-80,2.0,YEARS,WHITE,1.0,F,NOT HISPANIC OR LATINO,Y,Y,Y,Y,Y,Y,,,,27.8,25-<30,151.1,63.5,12.0,17971.0,39.8,>=12,19182.0,2012-07-22,2013-01-20,12.0,19378.0,COMPLETED,COMPLETED,,23.0
19,CDISCPILOT01,01-701-1203,1203,701,701,Placebo,Placebo,5.397605346934028e-79,Placebo,5.397605346934028e-79,19391.0,19573.0,183.0,5.397605346934028e-79,5.397605346934028e-79,81.0,>80,3.0,YEARS,BLACK OR AFRICAN AMERICAN,2.0,F,NOT HISPANIC OR LATINO,Y,Y,Y,Y,Y,Y,,,,25.9,25-<30,160.0,66.2,13.0,18736.0,21.3,>=12,19383.0,2013-02-02,2013-08-03,12.0,19573.0,COMPLETED,COMPLETED,,21.0
20,CDISCPILOT01,01-701-1211,1211,701,701,Xanomeline Low Dose,Xanomeline Low Dose,54.0,Xanomeline Low Dose,54.0,19312.0,19370.0,59.0,54.0,3186.0,76.0,65-80,2.0,YEARS,WHITE,1.0,F,NOT HISPANIC OR LATINO,Y,Y,Y,Y,N,N,Y,,Y,17.7,<25,160.0,45.4,12.0,18340.0,31.4,>=12,19296.0,2012-11-15,2013-01-14,9.0,19372.0,DEATH,DISCONTINUED,Death,12.0
21,CDISCPILOT01,01-701-1234,1234,701,701,Placebo,Placebo,5.397605346934028e-79,Placebo,5.397605346934028e-79,19447.0,19623.0,177.0,5.397605346934028e-79,5.397605346934028e-79,69.0,65-80,2.0,YEARS,WHITE,1.0,M,NOT HISPANIC OR LATINO,Y,Y,Y,Y,Y,Y,,,,23.4,<25,181.6,77.1,18.0,17024.0,79.3,>=12,19437.0,2013-03-30,2013-09-22,12.0,19623.0,COMPLETED,COMPLETED,,20.0
22,CDISCPILOT01,01-701-1239,1239,701,701,Xanomeline High Dose,Xanomeline High Dose,81.0,Xanomeline High Dose,81.0,19734.0,19914.0,181.0,76.8,13905.0,56.0,<65,1.0,YEARS,WHITE,1.0,M,HISPANIC OR LATINO,Y,Y,Y,Y,Y,Y,,,,33.6,>=30,168.9,95.9,11.0,15971.0,123.2,>=12,19720.0,2014-01-11,2014-07-11,12.0,19915.0,COMPLETED,COMPLETED,,23.0
23,CDISCPILOT01,01-701-1275,1275,701,701,Xanomeline High Dose,Xanomeline High Dose,81.0,Xanomeline High Dose,81.0,19761.0,19874.0,114.0,77.2,8802.0,61.0,<65,1.0,YEARS,AMERICAN INDIAN OR ALASKA NATIVE,6.0,M,NOT HISPANIC OR LATINO,Y,Y,Y,Y,Y,N,Y,,,24.6,<25,167.6,69.0,12.0,18887.0,28.3,>=12,19748.0,2014-02-07,2014-06-14,10.0,19888.0,WITHDRAWAL BY SUBJECT,DISCONTINUED,Withdrew Consent,22.0
24,CDISCPILOT01,01-701-1287,1287,701,701,Xanomeline High Dose,Xanomeline High Dose,81.0,Xanomeline High Dose,81.0,19748.0,19930.0,183.0,76.3,13959.0,56.0,<65,1.0,YEARS,WHITE,1.0,F,HISPANIC OR LATINO,Y,Y,Y,Y,Y,Y,,,,23.5,<25,154.9,56.3,14.0,18200.0,50.6,>=12,19740.0,2014-01-25,2014-07-26,12.0,19930.0,COMPLETED,COMPLETED,,22.0
25,CDISCPILOT01,01-701-1294,1294,701,701,Xanomeline Low Dose,Xanomeline Low Dose,54.0,Xanomeline Low Dose,54.0,19441.0,19523.0,83.0,54.0,4482.0,67.0,65-80,2.0,YEARS,WHITE,1.0,M,NOT HISPANIC OR LATINO,Y,Y,Y,Y,N,N,Y,Y,,27.1,25-<30,170.2,78.5,16.0,18879.0,18.3,>=12,19434.0,2013-03-24,2013-06-14,9.0,19523.0,ADVERSE EVENT,DISCONTINUED,Adverse Event,23.0
26,CDISCPILOT01,01-701-1302,1302,701,701,Xanomeline High Dose,Xanomeline High Dose,81.0,Xanomeline High Dose,81.0,19599.0,19667.0,69.0,74.0,5103.0,61.0,<65,1.0,YEARS,WHITE,1.0,M,NOT HISPANIC OR LATINO,Y,Y,Y,Y,N,N,Y,Y,,26.0,25-<30,177.8,82.1,15.0,17206.0,78.4,>=12,19590.0,2013-08-29,2013-11-05,9.0,19667.0,ADVERSE EVENT,DISCONTINUED,Adverse Event,23.0
27,CDISCPILOT01,01-701-1317,1317,701,701,Xanomeline Low Dose,Xanomeline Low Dose,54.0,Xanomeline Low Dose,54.0,19865.0,20047.0,183.0,54.0,9882.0,68.0,65-80,2.0,YEARS,WHITE,1.0,M,NOT HISPANIC OR LATINO,Y,Y,Y,Y,Y,Y,,,,21.4,<25,176.5,66.7,20.0,19617.0,7.8,<12,19853.0,2014-05-22,2014-11-20,12.0,20047.0,COMPLETED,COMPLETED,,20.0
28,CDISCPILOT01,01-701-1324,1324,701,701,Xanomeline Low Dose,Xanomeline Low Dose,54.0,Xanomeline Low Dose,54.0,19268.0,19450.0,183.0,54.0,9882.0,79.0,65-80,2.0,YEARS,WHITE,1.0,M,NOT HISPANIC OR LATINO,Y,Y,Y,Y,Y,Y,,,,27.8,25-<30,166.4,77.1,18.0,18181.0,35.2,>=12,19252.0,2012-10-02,2013-04-02,12.0,19450.0,COMPLETED,COMPLETED,,23.0
29,CDISCPILOT01,01-701-1341,1341,701,701,Xanomeline Low Dose,Xanomeline Low Dose,54.0,Xanomeline Low Dose,54.0,19363.0,19384.0,22.0,54.0,1188.0,51.0,<65,1.0,YEARS,WHITE,1.0,M,NOT HISPANIC OR LATINO,Y,Y,Y,N,N,N,Y,Y,,28.5,25-<30,157.5,70.8,24.0,16957.0,78.6,>=12,19349.0,2013-01-05,2013-02-07,5.0,19396.0,ADVERSE EVENT,DISCONTINUED,Adverse Event,23.0
30,CDISCPILOT01,01-701-1345,1345,701,701,Placebo,Placebo,5.397605346934028e-79,Placebo,5.397605346934028e-79,19639.0,19800.0,162.0,5.397605346934028e-79,5.397605346934028e-79,63.0,<65,1.0,YEARS,WHITE,1.0,F,NOT HISPANIC OR LATINO,Y,Y,Y,Y,Y,Y,Y,,,18.6,<25,174.0,56.3,15.0,18571.0,34.9,>=12,19632.0,2013-10-08,2014-03-18,12.0,19800.0,STUDY TERMINATED BY SPONSOR,DISCONTINUED,Sponsor Decision,23.0
31,CDISCPILOT01,01-701-1360,1360,701,701,Xanomeline High Dose,Xanomeline High Dose,81.0,Xanomeline High Dose,81.0,19570.0,19575.0,6.0,54.0,324.0,67.0,65-80,2.0,YEARS,WHITE,1.0,M,NOT HISPANIC OR LATINO,Y,Y,Y,N,N,N,Y,,,29.0,25-<30,166.4,80.3,10.0,17868.0,55.7,>=12,19563.0,2013-07-31,2013-08-14,4.0,19584.0,PHYSICIAN DECISION,DISCONTINUED,Physician Decision,23.0
32,CDISCPILOT01,01-701-1363,1363,701,701,Placebo,Placebo,5.397605346934028e-79,Placebo,5.397605346934028e-79,19508.0,19689.0,182.0,5.397605346934028e-79,5.397605346934028e-79,81.0,>80,3.0,YEARS,BLACK OR AFRICAN AMERICAN,2.0,F,NOT HISPANIC OR LATINO,Y,Y,Y,Y,Y,Y,,,,24.9,<25,161.3,64.9,13.0,16729.0,91.0,>=12,19498.0,2013-05-30,2013-11-27,12.0,19689.0,COMPLETED,COMPLETED,,22.0
33,CDISCPILOT01,01-701-1383,1383,701,701,Xanomeline High Dose,Xanomeline High Dose,81.0,Xanomeline High Dose,81.0,19393.0,19576.0,184.0,77.6,14283.0,72.0,65-80,2.0,YEARS,WHITE,1.0,F,NOT HISPANIC OR LATINO,Y,Y,Y,Y,Y,Y,,,,31.6,>=30,163.8,84.8,12.0,17033.0,77.1,>=12,19380.0,2013-02-04,2013-08-06,12.0,19576.0,COMPLETED,COMPLETED,,22.0
34,CDISCPILOT01,01-701-1387,1387,701,701,Placebo,Placebo,5.397605346934028e-79,Placebo,5.397605346934028e-79,19794.0,19807.0,14.0,5.397605346934028e-79,5.397605346934028e-79,87.0,>80,3.0,YEARS,WHITE,1.0,F,NOT HISPANIC OR LATINO,Y,Y,Y,N,N,N,Y,,,22.5,<25,162.6,59.4,12.0,15934.0,126.3,>=12,19777.0,2014-03-12,2014-03-25,4.0,19807.0,PROTOCOL VIOLATION,DISCONTINUED,Protocol Violation,11.0
35,CDISCPILOT01,01-701-1392,1392,701,701,Placebo,Placebo,5.397605346934028e-79,Placebo,5.397605346934028e-79,19294.0,19476.0,183.0,5.397605346934028e-79,5.397605346934028e-79,78.0,65-80,2.0,YEARS,WHITE,1.0,M,NOT HISPANIC OR LATINO,Y,Y,Y,Y,Y,Y,,,,28.9,25-<30,167.6,81.2,16.0,18377.0,29.8,>=12,19283.0,2012-10-28,2013-04-28,12.0,19476.0,COMPLETED,COMPLETED,,23.0
36,CDISCPILOT01,01-701-1415,1415,701,701,Placebo,Placebo,5.397605346934028e-79,Placebo,5.397605346934028e-79,19624.0,19806.0,183.0,5.397605346934028e-79,5.397605346934028e-79,85.0,>80,3.0,YEARS,WHITE,1.0,M,NOT HISPANIC OR LATINO,Y,Y,Y,Y,Y,Y,,,,25.0,25-<30,175.3,76.7,10.0,14043.0,183.1,>=12,19616.0,2013-09-23,2014-03-24,12.0,19806.0,COMPLETED,COMPLETED,,18.0
37,CDISCPILOT01,01-701-1429,1429,701,701,Xanomeline Low Dose,Xanomeline Low Dose,54.0,Xanomeline Low Dose,54.0,19436.0,19478.0,43.0,54.0,2322.0,84.0,>80,3.0,YEARS,WHITE,1.0,F,NOT HISPANIC OR LATINO,Y,Y,Y,N,N,N,Y,,,25.7,25-<30,148.6,56.7,12.0,17700.0,56.3,>=12,19414.0,2013-03-19,2013-04-30,7.0,19478.0,WITHDRAWAL BY SUBJECT,DISCONTINUED,Withdrew Consent,17.0
38,CDISCPILOT01,01-701-1440,1440,701,701,Placebo,Placebo,5.397605346934028e-79,Placebo,5.397605346934028e-79,19578.0,19759.0,182.0,5.397605346934028e-79,5.397605346934028e-79,70.0,65-80,2.0,YEARS,WHITE,1.0,M,NOT HISPANIC OR LATINO,Y,Y,Y,Y,Y,Y,,,,20.2,<25,156.2,49.4,18.0,18724.0,27.6,>=12,19563.0,2013-08-08,2014-02-05,12.0,19759.0,COMPLETED,COMPLETED,,22.0
39,CDISCPILOT01,01-701-1442,1442,701,701,Xanomeline Low Dose,Xanomeline Low Dose,54.0,Xanomeline Low Dose,54.0,19657.0,19839.0,183.0,54.0,9882.0,57.0,<65,1.0,YEARS,BLACK OR AFRICAN AMERICAN,2.0,F,NOT HISPANIC OR LATINO,Y,Y,Y,Y,Y,Y,,,,40.1,>=30,162.6,106.1,12.0,16852.0,91.9,>=12,19648.0,2013-10-26,2014-04-26,12.0,19839.0,COMPLETED,COMPLETED,,15.0
40,CDISCPILOT01,01-701-1444,1444,701,701,Xanomeline High Dose,Xanomeline High Dose,81.0,Xanomeline High Dose,81.0,19363.0,19401.0,39.0,71.3,2781.0,63.0,<65,1.0,YEARS,WHITE,1.0,M,HISPANIC OR LATINO,Y,Y,Y,N,N,N,Y,Y,,34.5,>=30,171.5,101.6,14.0,17673.0,55.4,>=12,19358.0,2013-01-05,2013-02-13,7.0,19402.0,ADVERSE EVENT,DISCONTINUED,Adverse Event,23.0
41,CDISCPILOT01,01-702-1082,1082,702,900,Xanomeline Low Dose,Xanomeline Low Dose,54.0,Xanomeline Low Dose,54.0,19565.0,19644.0,80.0,54.0,4320.0,84.0,>80,3.0,YEARS,WHITE,1.0,F,NOT HISPANIC OR LATINO,Y,Y,Y,Y,N,N,Y,,,,<25,154.9,,18.0,17303.0,73.6,>=12,19542.0,2013-07-26,2013-11-17,9.0,19679.0,WITHDRAWAL BY SUBJECT,DISCONTINUED,Withdrew Consent,23.0
42,CDISCPILOT01,01-703-1042,1042,703,703,Placebo,Placebo,5.397605346934028e-79,Placebo,5.397605346934028e-79,19419.0,19601.0,183.0,5.397605346934028e-79,5.397605346934028e-79,64.0,<65,1.0,YEARS,WHITE,1.0,M,NOT HISPANIC OR LATINO,Y,Y,Y,Y,Y,Y,,,,23.5,<25,177.8,74.4,12.0,17736.0,55.1,>=12,19412.0,2013-03-02,2013-08-31,12.0,19601.0,COMPLETED,COMPLETED,,23.0
43,CDISCPILOT01,01-703-1076,1076,703,703,Xanomeline High Dose,Xanomeline High Dose,81.0,Xanomeline High Dose,81.0,19656.0,19716.0,61.0,75.2,4590.0,69.0,65-80,2.0,YEARS,WHITE,1.0,M,NOT HISPANIC OR LATINO,Y,Y,Y,Y,N,N,Y,Y,,32.0,>=30,165.1,87.1,10.0,19232.0,13.7,>=12,19648.0,2013-10-25,2013-12-24,9.0,19716.0,ADVERSE EVENT,DISCONTINUED,Adverse Event,23.0
44,CDISCPILOT01,01-703-1086,1086,703,703,Xanomeline Low Dose,Xanomeline Low Dose,54.0,Xanomeline Low Dose,54.0,19238.0,19331.0,94.0,54.0,5076.0,71.0,65-80,2.0,YEARS,WHITE,1.0,M,NOT HISPANIC OR LATINO,Y,Y,Y,Y,Y,N,Y,Y,,25.0,25-<30,195.6,95.7,17.0,18744.0,15.9,>=12,19227.0,2012-09-02,2012-12-24,10.0,19351.0,ADVERSE EVENT,DISCONTINUED,Adverse Event,17.0
45,CDISCPILOT01,01-703-1096,1096,703,703,Placebo,Placebo,5.397605346934028e-79,Placebo,5.397605346934028e-79,19383.0,19433.0,51.0,5.397605346934028e-79,5.397605346934028e-79,81.0,>80,3.0,YEARS,WHITE,1.0,F,NOT HISPANIC OR LATINO,Y,Y,N,N,N,N,Y,,,31.7,>=30,160.0,81.2,6.0,17155.0,72.0,>=12,19346.0,2013-01-25,2013-03-29,7.0,19446.0,LOST TO FOLLOW-UP,DISCONTINUED,Lost to Follow-up,22.0
46,CDISCPILOT01,01-703-1100,1100,703,703,Placebo,Placebo,5.397605346934028e-79,Placebo,5.397605346934028e-79,19430.0,19615.0,186.0,5.397605346934028e-79,5.397605346934028e-79,84.0,>80,3.0,YEARS,WHITE,1.0,F,NOT HISPANIC OR LATINO,Y,Y,Y,Y,Y,Y,,,,21.8,<25,167.6,61.2,8.0,18598.0,26.9,>=12,19417.0,2013-03-13,2013-09-14,12.0,19615.0,COMPLETED,COMPLETED,,22.0
47,CDISCPILOT01,01-703-1119,1119,703,703,Xanomeline Low Dose,Xanomeline Low Dose,54.0,Xanomeline Low Dose,54.0,19409.0,19522.0,114.0,54.0,6156.0,81.0,>80,3.0,YEARS,WHITE,1.0,F,NOT HISPANIC OR LATINO,Y,Y,Y,Y,Y,N,Y,Y,,18.4,<25,160.0,47.2,16.0,16468.0,96.1,>=12,19391.0,2013-02-20,2013-06-13,10.0,19522.0,ADVERSE EVENT,DISCONTINUED,Adverse Event,14.0
48,CDISCPILOT01,01-703-1175,1175,703,703,Placebo,Placebo,5.397605346934028e-79,Placebo,5.397605346934028e-79,19712.0,19718.0,7.0,5.397605346934028e-79,5.397605346934028e-79,75.0,65-80,2.0,YEARS,WHITE,1.0,M,NOT HISPANIC OR LATINO,Y,Y,Y,N,N,N,Y,,,26.6,25-<30,170.2,77.1,16.0,18524.0,38.8,>=12,19705.0,2013-12-20,2013-12-31,4.0,19723.0,PROTOCOL VIOLATION,DISCONTINUED,I/E Not Met,11.0
49,CDISCPILOT01,01-703-1182,1182,703,703,Xanomeline Low Dose,Xanomeline Low Dose,54.0,Xanomeline Low Dose,54.0,19648.0,19703.0,56.0,54.0,3024.0,84.0,>80,3.0,YEARS,WHITE,1.0,M,NOT HISPANIC OR LATINO,Y,Y,Y,Y,N,N,Y,Y,,22.8,<25,172.7,68.0,12.0,18897.0,24.4,>=12,19639.0,2013-10-17,2013-12-12,8.0,19704.0,ADVERSE EVENT,DISCONTINUED,Adverse Event,22.0
50,CDISCPILOT01,01-703-1197,1197,703,703,Xanomeline Low Dose,Xanomeline Low Dose,54.0,Xanomeline Low Dose,54.0,19525.0,19538.0,14.0,54.0,756.0,76.0,65-80,2.0,YEARS,BLACK OR AFRICAN AMERICAN,2.0,F,NOT HISPANIC OR LATINO,Y,Y,Y,N,N,N,Y,,,38.6,>=30,162.6,102.1,5.0,19003.0,16.7,>=12,19510.0,2013-06-16,2013-07-22,4.0,19561.0,WITHDRAWAL BY SUBJECT,DISCONTINUED,Withdrew Consent,12.0
51,CDISCPILOT01,01-703-1210,1210,703,703,Placebo,Placebo,5.397605346934028e-79,Placebo,5.397605346934028e-79,19433.0,19607.0,175.0,5.397605346934028e-79,5.397605346934028e-79,72.0,65-80,2.0,YEARS,WHITE,1.0,F,NOT HISPANIC OR LATINO,Y,Y,Y,Y,Y,Y,,,,23.8,<25,144.8,49.9,12.0,18311.0,36.6,>=12,19425.0,2013-03-16,2013-09-06,12.0,19607.0,COMPLETED,COMPLETED,,19.0
52,CDISCPILOT01,01-703-1258,1258,703,703,Xanomeline High Dose,Xanomeline High Dose,81.0,Xanomeline High Dose,81.0,19194.0,19369.0,176.0,77.3,13608.0,78.0,65-80,2.0,YEARS,WHITE,1.0,F,NOT HISPANIC OR LATINO,Y,Y,Y,Y,Y,Y,Y,Y,,24.8,<25,154.9,59.4,12.0,16849.0,76.7,>=12,19184.0,2012-07-20,2013-01-21,12.0,19379.0,ADVERSE EVENT,DISCONTINUED,Adverse Event,13.0
53,CDISCPILOT01,01-703-1279,1279,703,703,Xanomeline Low Dose,Xanomeline Low Dose,54.0,Xanomeline Low Dose,54.0,19491.0,19512.0,22.0,54.0,1188.0,72.0,65-80,2.0,YEARS,WHITE,1.0,F,NOT HISPANIC OR LATINO,Y,Y,N,N,N,N,Y,,,21.1,<25,162.6,55.8,12.0,18472.0,33.0,>=12,19475.0,2013-05-13,2013-06-22,4.0,19531.0,WITHDRAWAL BY SUBJECT,DISCONTINUED,Withdrew Consent,14.0
54,CDISCPILOT01,01-703-1295,1295,703,703,Xanomeline High Dose,Xanomeline High Dose,81.0,Xanomeline High Dose,81.0,19683.0,19832.0,150.0,78.3,11745.0,88.0,>80,3.0,YEARS,WHITE,1.0,F,NOT HISPANIC OR LATINO,Y,Y,Y,Y,Y,N,Y,,,22.7,<25,157.5,56.3,8.0,19088.0,18.7,>=12,19655.0,2013-11-21,2014-05-19,11.0,19862.0,WITHDRAWAL BY SUBJECT,DISCONTINUED,Withdrew Consent,20.0
55,CDISCPILOT01,01-703-1299,1299,703,703,Placebo,Placebo,5.397605346934028e-79,Placebo,5.397605346934028e-79,19248.0,19430.0,183.0,5.397605346934028e-79,5.397605346934028e-79,81.0,>80,3.0,YEARS,WHITE,1.0,F,NOT HISPANIC OR LATINO,Y,Y,Y,Y,Y,Y,,,,19.2,<25,153.7,45.4,12.0,18886.0,11.8,<12,19243.0,2012-09-12,2013-03-13,12.0,19430.0,COMPLETED,COMPLETED,,23.0
56,CDISCPILOT01,01-703-1335,1335,703,703,Xanomeline High Dose,Xanomeline High Dose,81.0,Xanomeline High Dose,81.0,19799.0,19850.0,52.0,73.2,3807.0,67.0,65-80,2.0,YEARS,BLACK OR AFRICAN AMERICAN,2.0,F,NOT HISPANIC OR LATINO,Y,Y,Y,N,N,N,Y,,,23.0,<25,154.9,55.3,11.0,17561.0,73.0,>=12,19782.0,2014-03-17,2014-05-24,7.0,19867.0,PROTOCOL VIOLATION,DISCONTINUED,Protocol Violation,10.0
57,CDISCPILOT01,01-703-1379,1379,703,703,Xanomeline Low Dose,Xanomeline Low Dose,54.0,Xanomeline Low Dose,54.0,19623.0,19803.0,181.0,54.0,9774.0,81.0,>80,3.0,YEARS,BLACK OR AFRICAN AMERICAN,2.0,F,NOT HISPANIC OR LATINO,Y,Y,Y,Y,Y,Y,,,,30.7,>=30,157.5,76.2,7.0,18161.0,47.7,>=12,19613.0,2013-09-22,2014-03-21,12.0,19803.0,COMPLETED,COMPLETED,,12.0
58,CDISCPILOT01,01-703-1403,1403,703,703,Xanomeline High Dose,Xanomeline High Dose,81.0,Xanomeline High Dose,81.0,19339.0,19340.0,2.0,54.0,108.0,67.0,65-80,2.0,YEARS,WHITE,1.0,M,NOT HISPANIC OR LATINO,Y,Y,N,N,N,N,Y,Y,,25.4,25-<30,177.8,80.3,12.0,18603.0,24.0,>=12,19332.0,2012-12-12,2012-12-19,4.0,19346.0,ADVERSE EVENT,DISCONTINUED,Adverse Event,23.0
59,CDISCPILOT01,01-703-1439,1439,703,703,Xanomeline High Dose,Xanomeline High Dose,81.0,Xanomeline High Dose,81.0,19794.0,19977.0,184.0,76.7,14121.0,76.0,65-80,2.0,YEARS,WHITE,1.0,F,NOT HISPANIC OR LATINO,Y,Y,Y,Y,Y,Y,,,,24.8,<25,160.0,63.5,12.0,18472.0,43.2,>=12,19786.0,2014-03-12,2014-09-11,12.0,19977.0,COMPLETED,COMPLETED,,16.0
60,CDISCPILOT01,01-704-1008,1008,704,704,Xanomeline High Dose,Xanomeline High Dose,81.0,Xanomeline High Dose,81.0,19371.0,19410.0,40.0,70.2,2808.0,76.0,65-80,2.0,YEARS,WHITE,1.0,F,NOT HISPANIC OR LATINO,Y,Y,Y,N,N,N,Y,Y,,21.3,<25,148.0,46.7,12.0,18917.0,14.7,>=12,19364.0,2013-01-13,2013-02-25,7.0,19414.0,ADVERSE EVENT,DISCONTINUED,Adverse Event,21.0
61,CDISCPILOT01,01-704-1009,1009,704,704,Xanomeline Low Dose,Xanomeline Low Dose,54.0,Xanomeline Low Dose,54.0,19597.0,19626.0,30.0,54.0,1620.0,83.0,>80,3.0,YEARS,WHITE,1.0,M,NOT HISPANIC OR LATINO,Y,Y,Y,N,N,N,Y,,,20.8,<25,179.1,66.7,16.0,17931.0,54.5,>=12,19590.0,2013-08-27,2013-10-02,5.0,19633.0,WITHDRAWAL BY SUBJECT,DISCONTINUED,Withdrew Consent,21.0
62,CDISCPILOT01,01-704-1010,1010,704,704,Placebo,Placebo,5.397605346934028e-79,Placebo,5.397605346934028e-79,19775.0,19912.0,138.0,5.397605346934028e-79,5.397605346934028e-79,80.0,65-80,2.0,YEARS,WHITE,1.0,M,NOT HISPANIC OR LATINO,Y,Y,Y,Y,Y,N,Y,,,25.6,25-<30,177.8,81.0,14.0,16803.0,97.2,>=12,19762.0,2014-02-21,2014-07-09,11.0,19913.0,WITHDRAWAL BY SUBJECT,DISCONTINUED,Withdrew Consent,17.0
63,CDISCPILOT01,01-704-1017,1017,704,704,Xanomeline High Dose,Xanomeline High Dose,81.0,Xanomeline High Dose,81.0,19637.0,19680.0,44.0,72.4,3186.0,77.0,65-80,2.0,YEARS,WHITE,1.0,M,NOT HISPANIC OR LATINO,Y,Y,Y,N,N,N,Y,Y,,21.8,<25,170.2,63.1,12.0,18713.0,29.9,>=12,19621.0,2013-10-06,2013-11-24,7.0,19686.0,ADVERSE EVENT,DISCONTINUED,Adverse Event,21.0
64,CDISCPILOT01,01-704-1025,1025,704,704,Xanomeline Low Dose,Xanomeline Low Dose,54.0,Xanomeline Low Dose,54.0,19628.0,19655.0,28.0,54.0,1512.0,81.0,>80,3.0,YEARS,WHITE,1.0,F,NOT HISPANIC OR LATINO,Y,Y,Y,N,N,N,Y,Y,,20.1,<25,166.0,55.5,18.0,19055.0,18.6,>=12,19619.0,2013-09-27,2013-11-29,6.0,19691.0,ADVERSE EVENT,DISCONTINUED,Adverse Event,17.0
65,CDISCPILOT01,01-704-1065,1065,704,704,Xanomeline High Dose,Xanomeline High Dose,81.0,Xanomeline High Dose,81.0,19655.0,19714.0,60.0,74.3,4455.0,75.0,65-80,2.0,YEARS,WHITE,1.0,M,NOT HISPANIC OR LATINO,Y,Y,Y,Y,N,N,Y,Y,,24.8,<25,180.3,80.7,12.0,18344.0,42.9,>=12,19648.0,2013-10-24,2013-12-24,9.0,19716.0,ADVERSE EVENT,DISCONTINUED,Adverse Event,20.0
66,CDISCPILOT01,01-704-1074,1074,704,704,Xanomeline High Dose,Xanomeline High Dose,81.0,Xanomeline High Dose,81.0,19745.0,19802.0,58.0,72.2,4185.0,80.0,65-80,2.0,YEARS,WHITE,1.0,F,NOT HISPANIC OR LATINO,Y,Y,Y,Y,N,N,Y,Y,,27.0,25-<30,167.6,75.8,16.0,17927.0,59.7,>=12,19742.0,2014-01-22,2014-03-31,8.0,19813.0,ADVERSE EVENT,DISCONTINUED,Adverse Event,17.0
67,CDISCPILOT01,01-704-1093,1093,704,704,Xanomeline High Dose,Xanomeline High Dose,81.0,Xanomeline High Dose,81.0,19432.0,19526.0,95.0,76.5,7263.0,79.0,65-80,2.0,YEARS,WHITE,1.0,M,NOT HISPANIC OR LATINO,Y,Y,Y,Y,Y,N,Y,Y,,24.3,<25,174.0,73.5,12.0,18460.0,31.3,>=12,19411.0,2013-03-15,2013-06-20,10.0,19529.0,ADVERSE EVENT,DISCONTINUED,Adverse Event,18.0
68,CDISCPILOT01,01-704-1114,1114,704,704,Xanomeline Low Dose,Xanomeline Low Dose,54.0,Xanomeline Low Dose,54.0,19381.0,19546.0,166.0,54.0,8964.0,77.0,65-80,2.0,YEARS,WHITE,1.0,M,NOT HISPANIC OR LATINO,Y,Y,Y,Y,Y,Y,Y,,,28.1,25-<30,166.4,77.8,8.0,17250.0,69.6,>=12,19367.0,2013-01-23,2013-07-08,12.0,19547.0,WITHDRAWAL BY SUBJECT,DISCONTINUED,Withdrew Consent,20.0
69,CDISCPILOT01,01-704-1120,1120,704,704,Xanomeline Low Dose,Xanomeline Low Dose,54.0,Xanomeline Low Dose,54.0,19694.0,19755.0,62.0,54.0,3348.0,71.0,65-80,2.0,YEARS,WHITE,1.0,F,NOT HISPANIC OR LATINO,Y,Y,Y,Y,N,N,Y,Y,,23.9,<25,147.0,51.7,13.0,17248.0,79.9,>=12,19680.0,2013-12-02,2014-02-03,9.0,19757.0,ADVERSE EVENT,DISCONTINUED,Adverse Event,16.0
70,CDISCPILOT01,01-704-1127,1127,704,704,Placebo,Placebo,5.397605346934028e-79,Placebo,5.397605346934028e-79,19633.0,19813.0,181.0,5.397605346934028e-79,5.397605346934028e-79,84.0,>80,3.0,YEARS,WHITE,1.0,F,NOT HISPANIC OR LATINO,Y,Y,Y,Y,Y,Y,,,,15.1,<25,165.1,41.1,12.0,17786.0,60.2,>=12,19617.0,2013-10-02,2014-03-31,12.0,19813.0,COMPLETED,COMPLETED,,22.0
71,CDISCPILOT01,01-704-1135,1135,704,704,Xanomeline Low Dose,Xanomeline Low Dose,54.0,Xanomeline Low Dose,54.0,19662.0,19859.0,198.0,54.0,10692.0,74.0,65-80,2.0,YEARS,WHITE,1.0,F,NOT HISPANIC OR LATINO,Y,Y,Y,Y,Y,Y,,,,24.6,<25,161.8,64.4,14.0,18541.0,36.6,>=12,19654.0,2013-10-31,2014-05-16,12.0,19859.0,COMPLETED,COMPLETED,,23.0
72,CDISCPILOT01,01-704-1164,1164,704,704,Placebo,Placebo,5.397605346934028e-79,Placebo,5.397605346934028e-79,19255.0,19452.0,198.0,5.397605346934028e-79,5.397605346934028e-79,67.0,65-80,2.0,YEARS,WHITE,1.0,F,NOT HISPANIC OR LATINO,Y,Y,Y,Y,Y,Y,,,,20.1,<25,157.5,49.9,10.0,18690.0,18.3,>=12,19247.0,2012-09-19,2013-04-04,12.0,19452.0,COMPLETED,COMPLETED,,16.0
73,CDISCPILOT01,01-704-1218,1218,704,704,Xanomeline Low Dose,Xanomeline Low Dose,54.0,Xanomeline Low Dose,54.0,19316.0,19505.0,190.0,54.0,10260.0,81.0,>80,3.0,YEARS,WHITE,1.0,F,NOT HISPANIC OR LATINO,Y,Y,Y,Y,Y,Y,,,,26.2,25-<30,144.0,54.4,12.0,18489.0,26.9,>=12,19308.0,2012-11-19,2013-05-27,12.0,19505.0,COMPLETED,COMPLETED,,22.0
74,CDISCPILOT01,01-704-1233,1233,704,704,Placebo,Placebo,5.397605346934028e-79,Placebo,5.397605346934028e-79,19438.0,19553.0,116.0,5.397605346934028e-79,5.397605346934028e-79,87.0,>80,3.0,YEARS,WHITE,1.0,F,NOT HISPANIC OR LATINO,Y,Y,Y,Y,Y,N,Y,,,21.3,<25,147.3,46.3,16.0,18642.0,25.8,>=12,19425.0,2013-03-21,2013-07-14,11.0,19553.0,WITHDRAWAL BY SUBJECT,DISCONTINUED,Withdrew Consent,15.0
75,CDISCPILOT01,01-704-1241,1241,704,704,Xanomeline High Dose,Xanomeline High Dose,81.0,Xanomeline High Dose,81.0,19595.0,19640.0,46.0,74.0,3402.0,86.0,>80,3.0,YEARS,WHITE,1.0,M,NOT HISPANIC OR LATINO,Y,Y,Y,Y,N,N,Y,Y,,25.2,25-<30,170.2,73.0,14.0,18833.0,24.7,>=12,19584.0,2013-08-25,2013-10-31,8.0,19662.0,ADVERSE EVENT,DISCONTINUED,Adverse Event,21.0
76,CDISCPILOT01,01-704-1260,1260,704,704,Placebo,Placebo,5.397605346934028e-79,Placebo,5.397605346934028e-79,19235.0,19301.0,67.0,5.397605346934028e-79,5.397605346934028e-79,71.0,65-80,2.0,YEARS,WHITE,1.0,F,NOT HISPANIC OR LATINO,Y,Y,Y,Y,N,N,Y,,,19.1,<25,160.0,48.8,16.0,15673.0,116.8,>=12,19228.0,2012-08-30,2013-01-18,9.0,19376.0,WITHDRAWAL BY SUBJECT,DISCONTINUED,Withdrew Consent,16.0
77,CDISCPILOT01,01-704-1266,1266,704,704,Xanomeline High Dose,Xanomeline High Dose,81.0,Xanomeline High Dose,81.0,19644.0,19698.0,55.0,73.6,4050.0,82.0,>80,3.0,YEARS,WHITE,1.0,M,NOT HISPANIC OR LATINO,Y,Y,Y,Y,N,N,Y,Y,,29.2,25-<30,174.0,88.5,12.0,18963.0,22.1,>=12,19636.0,2013-10-13,2013-12-06,8.0,19698.0,ADVERSE EVENT,DISCONTINUED,Adverse Event,16.0
78,CDISCPILOT01,01-704-1323,1323,704,704,Xanomeline Low Dose,Xanomeline Low Dose,54.0,Xanomeline Low Dose,54.0,19547.0,19575.0,29.0,54.0,1566.0,68.0,65-80,2.0,YEARS,WHITE,1.0,F,NOT HISPANIC OR LATINO,Y,Y,N,N,N,N,Y,Y,,22.7,<25,162.6,59.9,16.0,18344.0,38.7,>=12,19522.0,2013-07-08,2013-08-08,7.0,19578.0,ADVERSE EVENT,DISCONTINUED,Adverse Event,23.0
79,CDISCPILOT01,01-704-1325,1325,704,704,Xanomeline Low Dose,Xanomeline Low Dose,54.0,Xanomeline Low Dose,54.0,19836.0,19908.0,73.0,54.0,3942.0,81.0,>80,3.0,YEARS,WHITE,1.0,M,NOT HISPANIC OR LATINO,Y,Y,Y,Y,Y,N,Y,,,22.3,<25,175.3,68.5,16.0,17838.0,65.4,>=12,19829.0,2014-04-23,2014-08-06,10.0,19941.0,PROTOCOL VIOLATION,DISCONTINUED,Protocol Violation,18.0
80,CDISCPILOT01,01-704-1332,1332,704,704,Xanomeline High Dose,Xanomeline High Dose,81.0,Xanomeline High Dose,81.0,19701.0,19768.0,68.0,75.0,5103.0,80.0,65-80,2.0,YEARS,WHITE,1.0,M,NOT HISPANIC OR LATINO,Y,Y,Y,Y,N,N,Y,Y,,26.2,25-<30,173.0,78.5,9.0,18940.0,24.5,>=12,19686.0,2013-12-09,2014-02-16,9.0,19770.0,ADVERSE EVENT,DISCONTINUED,Adverse Event,22.0
81,CDISCPILOT01,01-704-1351,1351,704,704,Placebo,Placebo,5.397605346934028e-79,Placebo,5.397605346934028e-79,19643.0,19831.0,189.0,5.397605346934028e-79,5.397605346934028e-79,70.0,65-80,2.0,YEARS,WHITE,1.0,M,NOT HISPANIC OR LATINO,Y,Y,Y,Y,Y,Y,,,,23.9,<25,175.3,73.5,12.0,19246.0,12.6,>=12,19627.0,2013-10-12,2014-04-18,12.0,19831.0,COMPLETED,COMPLETED,,22.0
82,CDISCPILOT01,01-704-1388,1388,704,704,Placebo,Placebo,5.397605346934028e-79,Placebo,5.397605346934028e-79,19334.0,19520.0,187.0,5.397605346934028e-79,5.397605346934028e-79,81.0,>80,3.0,YEARS,WHITE,1.0,M,NOT HISPANIC OR LATINO,Y,Y,Y,Y,Y,Y,,,,18.8,<25,176.5,58.5,11.0,18561.0,25.1,>=12,19325.0,2012-12-07,2013-06-19,12.0,19528.0,COMPLETED,COMPLETED,,20.0
83,CDISCPILOT01,01-704-1435,1435,704,704,Placebo,Placebo,5.397605346934028e-79,Placebo,5.397605346934028e-79,19314.0,19367.0,54.0,5.397605346934028e-79,5.397605346934028e-79,74.0,65-80,2.0,YEARS,WHITE,1.0,M,NOT HISPANIC OR LATINO,Y,Y,Y,Y,N,N,Y,,,27.1,25-<30,167.6,76.2,16.0,18282.0,33.4,>=12,19298.0,2012-11-17,2013-01-12,8.0,19370.0,WITHDRAWAL BY SUBJECT,DISCONTINUED,Withdrew Consent,20.0
84,CDISCPILOT01,01-704-1445,1445,704,704,Placebo,Placebo,5.397605346934028e-79,Placebo,5.397605346934028e-79,19854.0,20028.0,175.0,5.397605346934028e-79,5.397605346934028e-79,75.0,65-80,2.0,YEARS,WHITE,1.0,M,NOT HISPANIC OR LATINO,Y,Y,Y,Y,Y,Y,Y,,Y,22.8,<25,177.8,72.1,12.0,19308.0,17.6,>=12,19844.0,2014-05-11,2014-11-01,12.0,20028.0,DEATH,DISCONTINUED,Death,23.0
85,CDISCPILOT01,01-705-1018,1018,705,705,Placebo,Placebo,5.397605346934028e-79,Placebo,5.397605346934028e-79,19544.0,19551.0,8.0,5.397605346934028e-79,5.397605346934028e-79,69.0,65-80,2.0,YEARS,WHITE,1.0,F,NOT HISPANIC OR LATINO,Y,Y,N,N,N,N,Y,,,22.6,<25,147.3,49.0,6.0,18222.0,43.3,>=12,19539.0,2013-07-05,2013-07-12,4.0,19551.0,WITHDRAWAL BY SUBJECT,DISCONTINUED,Withdrew Consent,18.0
86,CDISCPILOT01,01-705-1031,1031,705,705,Xanomeline Low Dose,Xanomeline Low Dose,54.0,Xanomeline Low Dose,54.0,19689.0,19854.0,166.0,54.0,8964.0,56.0,<65,1.0,YEARS,WHITE,1.0,F,HISPANIC OR LATINO,Y,Y,Y,Y,Y,Y,Y,,,28.9,25-<30,157.5,71.7,16.0,18591.0,35.8,>=12,19679.0,2013-11-27,2014-05-11,12.0,19854.0,LOST TO FOLLOW-UP,DISCONTINUED,Lost to Follow-up,23.0
87,CDISCPILOT01,01-705-1059,1059,705,705,Placebo,Placebo,5.397605346934028e-79,Placebo,5.397605346934028e-79,19575.0,19697.0,123.0,5.397605346934028e-79,5.397605346934028e-79,66.0,65-80,2.0,YEARS,WHITE,1.0,F,NOT HISPANIC OR LATINO,Y,Y,Y,Y,Y,N,Y,Y,,20.4,<25,162.6,54.0,12.0,18098.0,48.5,>=12,19572.0,2013-08-05,2013-12-05,10.0,19697.0,ADVERSE EVENT,DISCONTINUED,Adverse Event,16.0
88,CDISCPILOT01,01-705-1186,1186,705,705,Placebo,Placebo,5.397605346934028e-79,Placebo,5.397605346934028e-79,19731.0,19749.0,19.0,5.397605346934028e-79,5.397605346934028e-79,84.0,>80,3.0,YEARS,WHITE,1.0,F,NOT HISPANIC OR LATINO,Y,Y,N,N,N,N,Y,,,19.7,<25,142.2,39.9,12.0,18811.0,30.1,>=12,19726.0,2014-01-08,2014-02-07,5.0,19761.0,PHYSICIAN DECISION,DISCONTINUED,Physician Decision,15.0
89,CDISCPILOT01,01-705-1199,1199,705,705,Xanomeline Low Dose,Xanomeline Low Dose,54.0,Xanomeline Low Dose,54.0,19617.0,19629.0,13.0,54.0,702.0,87.0,>80,3.0,YEARS,WHITE,1.0,M,NOT HISPANIC OR LATINO,Y,Y,Y,N,N,N,Y,Y,,24.8,<25,161.3,64.4,20.0,17417.0,72.1,>=12,19612.0,2013-09-16,2013-09-29,4.0,19630.0,ADVERSE EVENT,DISCONTINUED,Adverse Event,19.0
90,CDISCPILOT01,01-705-1280,1280,705,705,Xanomeline High Dose,Xanomeline High Dose,81.0,Xanomeline High Dose,81.0,19740.0,19929.0,190.0,76.9,14607.0,56.0,<65,1.0,YEARS,WHITE,1.0,F,NOT HISPANIC OR LATINO,Y,Y,Y,Y,Y,Y,,,,28.0,25-<30,157.5,69.4,12.0,19362.0,12.3,>=12,19734.0,2014-01-17,2014-07-25,12.0,19929.0,COMPLETED,COMPLETED,,23.0
91,CDISCPILOT01,01-705-1281,1281,705,705,Xanomeline High Dose,Xanomeline High Dose,81.0,Xanomeline High Dose,81.0,19690.0,19781.0,92.0,75.7,6966.0,73.0,65-80,2.0,YEARS,BLACK OR AFRICAN AMERICAN,2.0,F,NOT HISPANIC OR LATINO,Y,Y,Y,Y,Y,N,Y,Y,,31.4,>=30,152.4,73.0,12.0,19302.0,12.7,>=12,19688.0,2013-11-28,2014-03-17,10.0,19799.0,ADVERSE EVENT,DISCONTINUED,Adverse Event,23.0
92,CDISCPILOT01,01-705-1282,1282,705,705,Placebo,Placebo,5.397605346934028e-79,Placebo,5.397605346934028e-79,19353.0,19533.0,181.0,5.397605346934028e-79,5.397605346934028e-79,70.0,65-80,2.0,YEARS,BLACK OR AFRICAN AMERICAN,2.0,F,NOT HISPANIC OR LATINO,Y,Y,Y,Y,Y,Y,,,,30.4,>=30,154.9,73.0,12.0,17141.0,72.6,>=12,19350.0,2012-12-26,2013-06-24,12.0,19533.0,COMPLETED,COMPLETED,,10.0
93,CDISCPILOT01,01-705-1292,1292,705,705,Xanomeline Low Dose,Xanomeline Low Dose,54.0,Xanomeline Low Dose,54.0,19645.0,19856.0,212.0,54.0,11448.0,60.0,<65,1.0,YEARS,BLACK OR AFRICAN AMERICAN,2.0,F,NOT HISPANIC OR LATINO,Y,Y,Y,Y,Y,Y,,,,26.8,25-<30,167.6,75.3,8.0,19264.0,12.5,>=12,19642.0,2013-10-14,2014-05-14,12.0,19857.0,COMPLETED,COMPLETED,,23.0
94,CDISCPILOT01,01-705-1303,1303,705,705,Xanomeline High Dose,Xanomeline High Dose,81.0,Xanomeline High Dose,81.0,19708.0,19876.0,169.0,78.6,13284.0,72.0,65-80,2.0,YEARS,WHITE,1.0,M,NOT HISPANIC OR LATINO,Y,Y,Y,Y,Y,N,Y,Y,,27.5,25-<30,175.3,84.4,12.0,18611.0,35.9,>=12,19702.0,2013-12-16,2014-06-02,11.0,19876.0,ADVERSE EVENT,DISCONTINUED,Adverse Event,19.0
95,CDISCPILOT01,01-705-1310,1310,705,705,Xanomeline High Dose,Xanomeline High Dose,81.0,Xanomeline High Dose,81.0,19664.0,19746.0,83.0,74.2,6156.0,74.0,65-80,2.0,YEARS,WHITE,1.0,F,NOT HISPANIC OR LATINO,Y,Y,Y,Y,N,N,Y,Y,,22.7,<25,146.1,48.5,12.0,18930.0,23.9,>=12,19657.0,2013-11-02,2014-01-23,9.0,19746.0,ADVERSE EVENT,DISCONTINUED,Adverse Event,20.0
96,CDISCPILOT01,01-705-1349,1349,705,705,Placebo,Placebo,5.397605346934028e-79,Placebo,5.397605346934028e-79,19427.0,19609.0,183.0,5.397605346934028e-79,5.397605346934028e-79,86.0,>80,3.0,YEARS,WHITE,1.0,F,HISPANIC OR LATINO,Y,Y,Y,Y,Y,Y,,,,21.2,<25,144.8,44.5,10.0,17248.0,71.2,>=12,19413.0,2013-03-10,2013-09-08,12.0,19609.0,COMPLETED,COMPLETED,,15.0
97,CDISCPILOT01,01-705-1377,1377,705,705,Xanomeline High Dose,Xanomeline High Dose,81.0,Xanomeline High Dose,81.0,19727.0,19789.0,63.0,71.6,4509.0,63.0,<65,1.0,YEARS,BLACK OR AFRICAN AMERICAN,2.0,F,NOT HISPANIC OR LATINO,Y,Y,N,N,N,N,Y,,,21.0,<25,165.1,57.2,6.0,18997.0,23.8,>=12,19721.0,2014-01-04,2014-03-07,7.0,19789.0,WITHDRAWAL BY SUBJECT,DISCONTINUED,Withdrew Consent,14.0
98,CDISCPILOT01,01-705-1382,1382,705,705,Xanomeline High Dose,Xanomeline High Dose,81.0,Xanomeline High Dose,81.0,19491.0,19491.0,1.0,54.0,54.0,82.0,>80,3.0,YEARS,WHITE,1.0,M,NOT HISPANIC OR LATINO,Y,Y,N,N,N,N,Y,,,33.2,>=30,170.2,96.2,12.0,19116.0,12.2,>=12,19487.0,2013-05-13,2013-05-13,4.0,19491.0,PROTOCOL VIOLATION,DISCONTINUED,I/E Not Met,19.0
99,CDISCPILOT01,01-705-1393,1393,705,705,Xanomeline Low Dose,Xanomeline Low Dose,54.0,Xanomeline Low Dose,54.0,19243.0,19390.0,148.0,54.0,7992.0,84.0,>80,3.0,YEARS,WHITE,1.0,F,NOT HISPANIC OR LATINO,Y,Y,Y,Y,Y,N,Y,Y,,26.9,25-<30,144.8,56.3,13.0,16322.0,95.8,>=12,19238.0,2012-09-07,2013-02-20,11.0,19409.0,ADVERSE EVENT,DISCONTINUED,Adverse Event,19.0
100,CDISCPILOT01,01-705-1431,1431,705,705,Xanomeline Low Dose,Xanomeline Low Dose,54.0,Xanomeline Low Dose,54.0,19532.0,19711.0,180.0,54.0,9720.0,68.0,65-80,2.0,YEARS,WHITE,1.0,F,HISPANIC OR LATINO,Y,Y,Y,Y,Y,Y,,,,24.2,<25,149.9,54.4,12.0,18447.0,35.4,>=12,19525.0,2013-06-23,2013-12-19,12.0,19711.0,COMPLETED,COMPLETED,,21.0
101,CDISCPILOT01,01-706-1041,1041,706,900,Placebo,Placebo,5.397605346934028e-79,Placebo,5.397605346934028e-79,19723.0,19932.0,210.0,5.397605346934028e-79,5.397605346934028e-79,64.0,<65,1.0,YEARS,BLACK OR AFRICAN AMERICAN,2.0,F,NOT HISPANIC OR LATINO,Y,Y,Y,Y,Y,Y,,,,20.9,<25,167.6,58.7,15.0,18949.0,25.1,>=12,19713.0,2013-12-31,2014-07-29,12.0,19933.0,COMPLETED,COMPLETED,,20.0
102,CDISCPILOT01,01-706-1049,1049,706,900,Xanomeline High Dose,Xanomeline High Dose,81.0,Xanomeline High Dose,81.0,19492.0,19527.0,36.0,69.8,2511.0,60.0,<65,1.0,YEARS,WHITE,1.0,F,NOT HISPANIC OR LATINO,Y,Y,Y,N,N,N,Y,Y,,20.6,<25,167.6,57.8,11.0,18384.0,36.0,>=12,19478.0,2013-05-14,2013-06-25,7.0,19534.0,ADVERSE EVENT,DISCONTINUED,Adverse Event,16.0
103,CDISCPILOT01,01-706-1384,1384,706,900,Xanomeline Low Dose,Xanomeline Low Dose,54.0,Xanomeline Low Dose,54.0,19251.0,19260.0,10.0,54.0,540.0,74.0,65-80,2.0,YEARS,WHITE,1.0,F,NOT HISPANIC OR LATINO,Y,Y,Y,N,N,N,Y,Y,,30.6,>=30,157.5,76.0,8.0,17656.0,51.7,>=12,19230.0,2012-09-15,2012-09-29,4.0,19265.0,ADVERSE EVENT,DISCONTINUED,Adverse Event,20.0
104,CDISCPILOT01,01-707-1037,1037,707,900,Xanomeline Low Dose,Xanomeline Low Dose,54.0,Xanomeline Low Dose,54.0,19712.0,19716.0,5.0,54.0,270.0,72.0,65-80,2.0,YEARS,WHITE,1.0,F,NOT HISPANIC OR LATINO,Y,Y,Y,N,N,N,Y,,,23.8,<25,152.4,55.3,14.0,17899.0,59.3,>=12,19704.0,2013-12-20,2014-01-08,4.0,19731.0,WITHDRAWAL BY SUBJECT,DISCONTINUED,Withdrew Consent,24.0
105,CDISCPILOT01,01-707-1206,1206,707,900,Placebo,Placebo,5.397605346934028e-79,Placebo,5.397605346934028e-79,19659.0,19839.0,181.0,5.397605346934028e-79,5.397605346934028e-79,65.0,65-80,2.0,YEARS,WHITE,1.0,M,NOT HISPANIC OR LATINO,Y,Y,Y,Y,Y,Y,,,,24.6,<25,174.0,74.4,7.0,19228.0,13.9,>=12,19651.0,2013-10-28,2014-04-27,12.0,19840.0,COMPLETED,COMPLETED,,21.0
106,CDISCPILOT01,01-708-1019,1019,708,708,Xanomeline Low Dose,Xanomeline Low Dose,54.0,Xanomeline Low Dose,54.0,19712.0,19724.0,13.0,54.0,702.0,68.0,65-80,2.0,YEARS,WHITE,1.0,M,NOT HISPANIC OR LATINO,Y,Y,Y,N,N,N,Y,Y,,22.2,<25,182.9,74.4,18.0,17154.0,83.7,>=12,19702.0,2013-12-20,2014-01-23,4.0,19746.0,ADVERSE EVENT,DISCONTINUED,Adverse Event,17.0
107,CDISCPILOT01,01-708-1032,1032,708,708,Xanomeline Low Dose,Xanomeline Low Dose,54.0,Xanomeline Low Dose,54.0,19398.0,19418.0,21.0,54.0,1134.0,62.0,<65,1.0,YEARS,WHITE,1.0,M,NOT HISPANIC OR LATINO,Y,Y,Y,N,N,N,Y,Y,,26.1,25-<30,177.8,82.6,12.0,15537.0,126.7,>=12,19391.0,2013-02-09,2013-03-09,5.0,19426.0,ADVERSE EVENT,DISCONTINUED,Adverse Event,18.0
108,CDISCPILOT01,01-708-1084,1084,708,708,Xanomeline Low Dose,Xanomeline Low Dose,54.0,Xanomeline Low Dose,54.0,19487.0,19673.0,187.0,54.0,10098.0,73.0,65-80,2.0,YEARS,WHITE,1.0,F,NOT HISPANIC OR LATINO,Y,Y,Y,Y,Y,Y,,,,17.9,<25,167.6,50.4,12.0,18378.0,36.2,>=12,19479.0,2013-05-09,2013-11-11,12.0,19673.0,COMPLETED,COMPLETED,,23.0
109,CDISCPILOT01,01-708-1087,1087,708,708,Placebo,Placebo,5.397605346934028e-79,Placebo,5.397605346934028e-79,19288.0,19476.0,189.0,5.397605346934028e-79,5.397605346934028e-79,74.0,65-80,2.0,YEARS,WHITE,1.0,F,NOT HISPANIC OR LATINO,Y,Y,Y,Y,Y,Y,,,,26.9,25-<30,157.5,66.7,12.0,17777.0,49.1,>=12,19272.0,2012-10-22,2013-04-28,12.0,19476.0,COMPLETED,COMPLETED,,17.0
110,CDISCPILOT01,01-708-1158,1158,708,708,Placebo,Placebo,5.397605346934028e-79,Placebo,5.397605346934028e-79,19762.0,19803.0,42.0,5.397605346934028e-79,5.397605346934028e-79,81.0,>80,3.0,YEARS,WHITE,1.0,F,NOT HISPANIC OR LATINO,Y,Y,Y,N,N,N,Y,Y,,27.8,25-<30,162.6,73.5,8.0,18475.0,42.1,>=12,19755.0,2014-02-08,2014-03-22,7.0,19804.0,ADVERSE EVENT,DISCONTINUED,Adverse Event,16.0
111,CDISCPILOT01,01-708-1171,1171,708,708,Placebo,Placebo,5.397605346934028e-79,Placebo,5.397605346934028e-79,19333.0,19513.0,181.0,5.397605346934028e-79,5.397605346934028e-79,77.0,65-80,2.0,YEARS,WHITE,1.0,F,NOT HISPANIC OR LATINO,Y,Y,Y,Y,Y,Y,,,,20.8,<25,162.6,54.9,9.0,18529.0,26.1,>=12,19322.0,2012-12-06,2013-06-04,12.0,19513.0,COMPLETED,COMPLETED,,13.0
112,CDISCPILOT01,01-708-1178,1178,708,708,Xanomeline High Dose,Xanomeline High Dose,81.0,Xanomeline High Dose,81.0,19721.0,19819.0,99.0,75.3,7452.0,77.0,65-80,2.0,YEARS,BLACK OR AFRICAN AMERICAN,2.0,F,NOT HISPANIC OR LATINO,Y,Y,Y,Y,N,N,Y,,,23.0,<25,165.1,62.8,8.0,17754.0,64.1,>=12,19705.0,2013-12-29,2014-04-06,9.0,19819.0,PHYSICIAN DECISION,DISCONTINUED,Physician Decision,10.0
113,CDISCPILOT01,01-708-1213,1213,708,708,Xanomeline High Dose,Xanomeline High Dose,81.0,Xanomeline High Dose,81.0,19398.0,19411.0,14.0,54.0,756.0,76.0,65-80,2.0,YEARS,WHITE,1.0,F,NOT HISPANIC OR LATINO,Y,Y,N,N,N,N,Y,Y,,15.3,<25,165.1,41.7,12.0,18664.0,23.9,>=12,19390.0,2013-02-09,2013-02-26,5.0,19415.0,ADVERSE EVENT,DISCONTINUED,Adverse Event,14.0
114,CDISCPILOT01,01-708-1216,1216,708,708,Xanomeline High Dose,Xanomeline High Dose,81.0,Xanomeline High Dose,81.0,19290.0,19326.0,37.0,69.3,2565.0,78.0,65-80,2.0,YEARS,WHITE,1.0,M,NOT HISPANIC OR LATINO,Y,Y,Y,N,N,N,Y,Y,,25.9,25-<30,172.7,77.1,12.0,15171.0,135.0,>=12,19280.0,2012-10-24,2012-12-06,7.0,19333.0,ADVERSE EVENT,DISCONTINUED,Adverse Event,17.0
115,CDISCPILOT01,01-708-1236,1236,708,708,Xanomeline High Dose,Xanomeline High Dose,81.0,Xanomeline High Dose,81.0,19622.0,19622.0,1.0,54.0,54.0,86.0,>80,3.0,YEARS,WHITE,1.0,F,NOT HISPANIC OR LATINO,Y,Y,N,N,N,N,Y,,,23.4,<25,152.4,54.4,8.0,19244.0,12.0,>=12,19609.0,2013-09-21,2013-09-26,4.0,19627.0,WITHDRAWAL BY SUBJECT,DISCONTINUED,Withdrew Consent,22.0
116,CDISCPILOT01,01-708-1253,1253,708,708,Placebo,Placebo,5.397605346934028e-79,Placebo,5.397605346934028e-79,19485.0,19667.0,183.0,5.397605346934028e-79,5.397605346934028e-79,61.0,<65,1.0,YEARS,WHITE,1.0,M,NOT HISPANIC OR LATINO,Y,Y,Y,Y,Y,Y,,,,22.1,<25,185.4,75.8,12.0,17968.0,49.5,>=12,19474.0,2013-05-07,2013-11-05,12.0,19667.0,COMPLETED,COMPLETED,,12.0
117,CDISCPILOT01,01-708-1272,1272,708,708,Xanomeline Low Dose,Xanomeline Low Dose,54.0,Xanomeline Low Dose,54.0,19395.0,19439.0,45.0,54.0,2430.0,82.0,>80,3.0,YEARS,WHITE,1.0,M,NOT HISPANIC OR LATINO,Y,Y,Y,Y,N,N,Y,,,24.9,<25,172.7,74.4,11.0,17020.0,77.6,>=12,19380.0,2013-02-06,2013-04-04,8.0,19452.0,WITHDRAWAL BY SUBJECT,DISCONTINUED,Withdrew Consent,15.0
118,CDISCPILOT01,01-708-1286,1286,708,708,Placebo,Placebo,5.397605346934028e-79,Placebo,5.397605346934028e-79,19611.0,19790.0,180.0,5.397605346934028e-79,5.397605346934028e-79,80.0,65-80,2.0,YEARS,BLACK OR AFRICAN AMERICAN,2.0,F,NOT HISPANIC OR LATINO,Y,Y,Y,Y,Y,Y,,,,32.8,>=30,152.4,76.2,12.0,15251.0,142.8,>=12,19595.0,2013-09-10,2014-03-08,12.0,19790.0,COMPLETED,COMPLETED,,10.0
119,CDISCPILOT01,01-708-1296,1296,708,708,Placebo,Placebo,5.397605346934028e-79,Placebo,5.397605346934028e-79,19523.0,19704.0,182.0,5.397605346934028e-79,5.397605346934028e-79,57.0,<65,1.0,YEARS,BLACK OR AFRICAN AMERICAN,2.0,M,NOT HISPANIC OR LATINO,Y,Y,Y,Y,Y,Y,,,,27.9,25-<30,170.2,80.7,18.0,18296.0,40.1,>=12,19516.0,2013-06-14,2013-12-12,12.0,19704.0,COMPLETED,COMPLETED,,16.0
120,CDISCPILOT01,01-708-1297,1297,708,708,Xanomeline Low Dose,Xanomeline Low Dose,54.0,Xanomeline Low Dose,54.0,19383.0,19481.0,99.0,54.0,5346.0,61.0,<65,1.0,YEARS,WHITE,1.0,M,NOT HISPANIC OR LATINO,Y,Y,Y,Y,Y,N,Y,Y,,23.0,<25,185.4,78.9,13.0,17589.0,58.6,>=12,19373.0,2013-01-25,2013-05-08,10.0,19486.0,ADVERSE EVENT,DISCONTINUED,Adverse Event,23.0
121,CDISCPILOT01,01-708-1316,1316,708,708,Placebo,Placebo,5.397605346934028e-79,Placebo,5.397605346934028e-79,19593.0,19783.0,191.0,5.397605346934028e-79,5.397605346934028e-79,74.0,65-80,2.0,YEARS,WHITE,1.0,F,NOT HISPANIC OR LATINO,Y,Y,Y,Y,Y,Y,,,,23.4,<25,160.0,59.9,12.0,18847.0,24.3,>=12,19585.0,2013-08-23,2014-03-01,12.0,19783.0,COMPLETED,COMPLETED,,22.0
122,CDISCPILOT01,01-708-1336,1336,708,708,Xanomeline High Dose,Xanomeline High Dose,81.0,Xanomeline High Dose,81.0,19334.0,19514.0,181.0,76.7,13878.0,73.0,65-80,2.0,YEARS,WHITE,1.0,M,NOT HISPANIC OR LATINO,Y,Y,Y,Y,Y,Y,,,,24.1,<25,190.5,87.5,18.0,15675.0,119.7,>=12,19318.0,2012-12-07,2013-06-05,12.0,19514.0,COMPLETED,COMPLETED,,15.0
123,CDISCPILOT01,01-708-1342,1342,708,708,Placebo,Placebo,5.397605346934028e-79,Placebo,5.397605346934028e-79,19356.0,19537.0,182.0,5.397605346934028e-79,5.397605346934028e-79,59.0,<65,1.0,YEARS,WHITE,1.0,F,NOT HISPANIC OR LATINO,Y,Y,Y,Y,Y,Y,,,,20.4,<25,170.2,59.0,13.0,18529.0,26.9,>=12,19348.0,2012-12-29,2013-06-28,12.0,19537.0,COMPLETED,COMPLETED,,18.0
124,CDISCPILOT01,01-708-1347,1347,708,708,Xanomeline High Dose,Xanomeline High Dose,81.0,Xanomeline High Dose,81.0,19468.0,19527.0,60.0,74.3,4455.0,61.0,<65,1.0,YEARS,WHITE,1.0,F,NOT HISPANIC OR LATINO,Y,Y,Y,Y,N,N,Y,Y,,29.2,25-<30,160.0,74.8,12.0,18040.0,46.7,>=12,19459.0,2013-04-20,2013-06-18,9.0,19527.0,ADVERSE EVENT,DISCONTINUED,Adverse Event,22.0
125,CDISCPILOT01,01-708-1348,1348,708,708,Xanomeline Low Dose,Xanomeline Low Dose,54.0,Xanomeline Low Dose,54.0,19575.0,19767.0,193.0,54.0,10422.0,79.0,65-80,2.0,YEARS,WHITE,1.0,F,NOT HISPANIC OR LATINO,Y,Y,Y,Y,Y,Y,,,,23.6,<25,160.0,60.3,12.0,18472.0,36.0,>=12,19567.0,2013-08-05,2014-02-13,12.0,19767.0,COMPLETED,COMPLETED,,13.0
126,CDISCPILOT01,01-708-1353,1353,708,708,Xanomeline Low Dose,Xanomeline Low Dose,54.0,Xanomeline Low Dose,54.0,19543.0,19598.0,56.0,54.0,3024.0,87.0,>80,3.0,YEARS,BLACK OR AFRICAN AMERICAN,2.0,F,NOT HISPANIC OR LATINO,Y,Y,Y,Y,N,N,Y,Y,,20.3,<25,157.5,50.4,16.0,18480.0,34.4,>=12,19526.0,2013-07-04,2013-09-10,8.0,19611.0,ADVERSE EVENT,DISCONTINUED,Adverse Event,16.0
127,CDISCPILOT01,01-708-1372,1372,708,708,Xanomeline High Dose,Xanomeline High Dose,81.0,Xanomeline High Dose,81.0,19460.0,19467.0,8.0,54.0,432.0,84.0,>80,3.0,YEARS,WHITE,1.0,M,NOT HISPANIC OR LATINO,Y,Y,N,N,N,N,Y,,,30.7,>=30,170.2,88.9,8.0,17426.0,66.6,>=12,19451.0,2013-04-12,2013-05-10,4.0,19488.0,PROTOCOL VIOLATION,DISCONTINUED,I/E Not Met,17.0
128,CDISCPILOT01,01-708-1378,1378,708,708,Placebo,Placebo,5.397605346934028e-79,Placebo,5.397605346934028e-79,19604.0,19751.0,148.0,5.397605346934028e-79,5.397605346934028e-79,67.0,65-80,2.0,YEARS,BLACK OR AFRICAN AMERICAN,2.0,M,NOT HISPANIC OR LATINO,Y,Y,Y,Y,Y,N,Y,,,24.3,<25,170.2,70.3,13.0,17972.0,53.3,>=12,19594.0,2013-09-03,2014-01-28,11.0,19751.0,STUDY TERMINATED BY SPONSOR,DISCONTINUED,Sponsor Decision,20.0
129,CDISCPILOT01,01-708-1406,1406,708,708,Xanomeline High Dose,Xanomeline High Dose,81.0,Xanomeline High Dose,81.0,19718.0,19906.0,189.0,76.6,14472.0,71.0,65-80,2.0,YEARS,WHITE,1.0,F,NOT HISPANIC OR LATINO,Y,Y,Y,Y,Y,Y,,,,22.1,<25,157.5,54.9,13.0,18437.0,41.5,>=12,19698.0,2013-12-26,2014-07-02,12.0,19906.0,COMPLETED,COMPLETED,,15.0
130,CDISCPILOT01,01-708-1428,1428,708,708,Xanomeline Low Dose,Xanomeline Low Dose,54.0,Xanomeline Low Dose,54.0,19671.0,19706.0,36.0,54.0,1944.0,84.0,>80,3.0,YEARS,WHITE,1.0,F,NOT HISPANIC OR LATINO,Y,Y,Y,Y,N,N,Y,Y,,23.8,<25,157.5,59.0,8.0,18562.0,36.2,>=12,19664.0,2013-11-09,2014-01-31,8.0,19754.0,ADVERSE EVENT,DISCONTINUED,Adverse Event,19.0
131,CDISCPILOT01,01-709-1001,1001,709,709,Placebo,Placebo,5.397605346934028e-79,Placebo,5.397605346934028e-79,19639.0,19821.0,183.0,5.397605346934028e-79,5.397605346934028e-79,76.0,65-80,2.0,YEARS,WHITE,1.0,F,NOT HISPANIC OR LATINO,Y,Y,Y,Y,Y,Y,,,,25.2,25-<30,170.2,73.0,12.0,18657.0,31.7,>=12,19621.0,2013-10-08,2014-04-08,12.0,19821.0,COMPLETED,COMPLETED,,15.0
132,CDISCPILOT01,01-709-1007,1007,709,709,Xanomeline Low Dose,Xanomeline Low Dose,54.0,Xanomeline Low Dose,54.0,19205.0,19233.0,29.0,54.0,1566.0,54.0,<65,1.0,YEARS,WHITE,1.0,F,NOT HISPANIC OR LATINO,Y,Y,N,N,N,N,Y,Y,,23.8,<25,158.8,59.9,21.0,17225.0,64.8,>=12,19195.0,2012-07-31,2012-09-01,5.0,19237.0,ADVERSE EVENT,DISCONTINUED,Adverse Event,10.0
133,CDISCPILOT01,01-709-1020,1020,709,709,Xanomeline Low Dose,Xanomeline Low Dose,54.0,Xanomeline Low Dose,54.0,19328.0,19510.0,183.0,54.0,9882.0,72.0,65-80,2.0,YEARS,WHITE,1.0,F,NOT HISPANIC OR LATINO,Y,Y,Y,Y,Y,Y,,,,25.9,25-<30,144.8,54.4,12.0,17954.0,44.9,>=12,19319.0,2012-12-01,2013-06-01,12.0,19510.0,COMPLETED,COMPLETED,,15.0
134,CDISCPILOT01,01-709-1029,1029,709,709,Xanomeline High Dose,Xanomeline High Dose,81.0,Xanomeline High Dose,81.0,19352.0,19535.0,184.0,76.6,14094.0,82.0,>80,3.0,YEARS,WHITE,1.0,M,NOT HISPANIC OR LATINO,Y,Y,Y,Y,Y,Y,,,,23.1,<25,172.7,69.0,20.0,18050.0,42.3,>=12,19337.0,2012-12-25,2013-06-26,12.0,19535.0,COMPLETED,COMPLETED,,16.0
135,CDISCPILOT01,01-709-1081,1081,709,709,Xanomeline Low Dose,Xanomeline Low Dose,54.0,Xanomeline Low Dose,54.0,19741.0,19840.0,100.0,54.0,5400.0,86.0,>80,3.0,YEARS,WHITE,1.0,F,NOT HISPANIC OR LATINO,Y,Y,Y,Y,Y,N,Y,Y,,23.5,<25,154.9,56.5,9.0,18845.0,29.2,>=12,19732.0,2014-01-18,2014-05-10,10.0,19853.0,ADVERSE EVENT,DISCONTINUED,Adverse Event,21.0
136,CDISCPILOT01,01-709-1088,1088,709,709,Placebo,Placebo,5.397605346934028e-79,Placebo,5.397605346934028e-79,19825.0,20005.0,181.0,5.397605346934028e-79,5.397605346934028e-79,69.0,65-80,2.0,YEARS,WHITE,1.0,M,NOT HISPANIC OR LATINO,Y,Y,Y,Y,Y,Y,,,,24.8,<25,179.1,79.4,16.0,19048.0,25.1,>=12,19812.0,2014-04-12,2014-10-09,12.0,20005.0,COMPLETED,COMPLETED,,23.0
137,CDISCPILOT01,01-709-1099,1099,709,709,Xanomeline High Dose,Xanomeline High Dose,81.0,Xanomeline High Dose,81.0,19656.0,19838.0,183.0,76.1,13932.0,79.0,65-80,2.0,YEARS,WHITE,1.0,F,NOT HISPANIC OR LATINO,Y,Y,Y,Y,Y,Y,,,,19.6,<25,165.1,53.5,12.0,18007.0,53.8,>=12,19645.0,2013-10-25,2014-04-25,12.0,19838.0,COMPLETED,COMPLETED,,11.0
138,CDISCPILOT01,01-709-1102,1102,709,709,Xanomeline Low Dose,Xanomeline Low Dose,54.0,Xanomeline Low Dose,54.0,19373.0,19444.0,72.0,54.0,3888.0,71.0,65-80,2.0,YEARS,WHITE,1.0,F,NOT HISPANIC OR LATINO,Y,Y,Y,Y,N,N,Y,Y,,32.1,>=30,166.4,88.9,14.0,18091.0,41.9,>=12,19365.0,2013-01-15,2013-03-31,9.0,19448.0,ADVERSE EVENT,DISCONTINUED,Adverse Event,16.0
139,CDISCPILOT01,01-709-1168,1168,709,709,Xanomeline High Dose,Xanomeline High Dose,81.0,Xanomeline High Dose,81.0,19572.0,19627.0,56.0,73.3,4104.0,72.0,65-80,2.0,YEARS,WHITE,1.0,F,NOT HISPANIC OR LATINO,Y,Y,Y,Y,N,N,Y,Y,,27.6,25-<30,149.9,62.1,12.0,18199.0,44.9,>=12,19564.0,2013-08-02,2013-09-27,8.0,19628.0,ADVERSE EVENT,DISCONTINUED,Adverse Event,20.0
140,CDISCPILOT01,01-709-1217,1217,709,709,Xanomeline Low Dose,Xanomeline Low Dose,54.0,Xanomeline Low Dose,54.0,19421.0,19520.0,100.0,54.0,5400.0,77.0,65-80,2.0,YEARS,WHITE,1.0,M,NOT HISPANIC OR LATINO,Y,Y,Y,Y,Y,N,Y,Y,,23.1,<25,171.5,68.0,6.0,17816.0,52.2,>=12,19405.0,2013-03-04,2013-06-25,10.0,19534.0,ADVERSE EVENT,DISCONTINUED,Adverse Event,14.0
141,CDISCPILOT01,01-709-1238,1238,709,709,Xanomeline High Dose,Xanomeline High Dose,81.0,Xanomeline High Dose,81.0,19493.0,19576.0,84.0,76.2,6399.0,69.0,65-80,2.0,YEARS,WHITE,1.0,M,NOT HISPANIC OR LATINO,Y,Y,Y,Y,N,N,Y,Y,,28.5,25-<30,170.2,82.6,8.0,18913.0,18.7,>=12,19480.0,2013-05-15,2013-08-07,9.0,19577.0,ADVERSE EVENT,DISCONTINUED,Adverse Event,24.0
142,CDISCPILOT01,01-709-1259,1259,709,709,Placebo,Placebo,5.397605346934028e-79,Placebo,5.397605346934028e-79,19384.0,19522.0,139.0,5.397605346934028e-79,5.397605346934028e-79,82.0,>80,3.0,YEARS,WHITE,1.0,M,NOT HISPANIC OR LATINO,Y,Y,Y,Y,Y,N,Y,,,21.9,<25,172.7,65.3,18.0,17750.0,53.3,>=12,19371.0,2013-01-26,2013-06-13,11.0,19522.0,LACK OF EFFICACY,DISCONTINUED,Lack of Efficacy,20.0
143,CDISCPILOT01,01-709-1285,1285,709,709,Xanomeline Low Dose,Xanomeline Low Dose,54.0,Xanomeline Low Dose,54.0,19441.0,19501.0,61.0,54.0,3294.0,87.0,>80,3.0,YEARS,WHITE,1.0,M,NOT HISPANIC OR LATINO,Y,Y,Y,Y,N,N,Y,,,23.1,<25,167.6,64.9,6.0,18158.0,42.0,>=12,19434.0,2013-03-24,2013-05-31,9.0,19509.0,STUDY TERMINATED BY SPONSOR,DISCONTINUED,Sponsor Decision,16.0
144,CDISCPILOT01,01-709-1301,1301,709,709,Placebo,Placebo,5.397605346934028e-79,Placebo,5.397605346934028e-79,19558.0,19740.0,183.0,5.397605346934028e-79,5.397605346934028e-79,62.0,<65,1.0,YEARS,WHITE,1.0,F,NOT HISPANIC OR LATINO,Y,Y,Y,Y,Y,Y,,,,23.6,<25,146.1,50.4,10.0,17932.0,53.3,>=12,19553.0,2013-07-19,2014-01-17,12.0,19740.0,COMPLETED,COMPLETED,,10.0
145,CDISCPILOT01,01-709-1306,1306,709,709,Placebo,Placebo,5.397605346934028e-79,Placebo,5.397605346934028e-79,19757.0,19890.0,134.0,5.397605346934028e-79,5.397605346934028e-79,60.0,<65,1.0,YEARS,WHITE,1.0,F,NOT HISPANIC OR LATINO,Y,Y,Y,Y,Y,N,Y,Y,,18.5,<25,154.9,44.5,12.0,17930.0,59.6,>=12,19742.0,2014-02-03,2014-06-25,11.0,19899.0,ADVERSE EVENT,DISCONTINUED,Adverse Event,21.0
146,CDISCPILOT01,01-709-1309,1309,709,709,Xanomeline High Dose,Xanomeline High Dose,81.0,Xanomeline High Dose,81.0,19528.0,19711.0,184.0,77.0,14175.0,65.0,65-80,2.0,YEARS,WHITE,1.0,M,NOT HISPANIC OR LATINO,Y,Y,Y,Y,Y,Y,,,,24.8,<25,177.8,78.5,16.0,18252.0,41.6,>=12,19518.0,2013-06-19,2013-12-19,12.0,19711.0,COMPLETED,COMPLETED,,17.0
147,CDISCPILOT01,01-709-1312,1312,709,709,Placebo,Placebo,5.397605346934028e-79,Placebo,5.397605346934028e-79,19833.0,20015.0,183.0,5.397605346934028e-79,5.397605346934028e-79,68.0,65-80,2.0,YEARS,WHITE,1.0,F,NOT HISPANIC OR LATINO,Y,Y,Y,Y,Y,Y,,,,20.9,<25,160.0,53.5,13.0,18473.0,44.5,>=12,19826.0,2014-04-20,2014-10-19,12.0,20015.0,COMPLETED,COMPLETED,,14.0
148,CDISCPILOT01,01-709-1326,1326,709,709,Xanomeline Low Dose,Xanomeline Low Dose,54.0,Xanomeline Low Dose,54.0,19453.0,19633.0,181.0,54.0,9774.0,75.0,65-80,2.0,YEARS,WHITE,1.0,F,NOT HISPANIC OR LATINO,Y,Y,Y,Y,Y,Y,,,,28.7,25-<30,161.3,74.8,16.0,18524.0,30.1,>=12,19438.0,2013-04-05,2013-10-02,12.0,19633.0,COMPLETED,COMPLETED,,11.0
149,CDISCPILOT01,01-709-1329,1329,709,709,Xanomeline High Dose,Xanomeline High Dose,81.0,Xanomeline High Dose,81.0,19585.0,19595.0,11.0,54.0,594.0,70.0,65-80,2.0,YEARS,WHITE,1.0,M,NOT HISPANIC OR LATINO,Y,Y,Y,N,N,N,Y,,,26.5,25-<30,170.2,76.7,16.0,17964.0,52.8,>=12,19571.0,2013-08-15,2013-08-29,4.0,19599.0,WITHDRAWAL BY SUBJECT,DISCONTINUED,Withdrew Consent,10.0
150,CDISCPILOT01,01-709-1339,1339,709,709,Placebo,Placebo,5.397605346934028e-79,Placebo,5.397605346934028e-79,19350.0,19533.0,184.0,5.397605346934028e-79,5.397605346934028e-79,81.0,>80,3.0,YEARS,WHITE,1.0,M,NOT HISPANIC OR LATINO,Y,Y,Y,Y,Y,Y,,,,25.4,25-<30,175.3,78.0,16.0,18324.0,33.5,>=12,19342.0,2012-12-23,2013-06-24,12.0,19533.0,COMPLETED,COMPLETED,,23.0
151,CDISCPILOT01,01-709-1424,1424,709,709,Xanomeline High Dose,Xanomeline High Dose,81.0,Xanomeline High Dose,81.0,19420.0,19424.0,5.0,54.0,270.0,77.0,65-80,2.0,YEARS,WHITE,1.0,M,NOT HISPANIC OR LATINO,Y,Y,Y,N,N,N,Y,Y,,22.6,<25,174.0,68.5,16.0,17421.0,65.2,>=12,19404.0,2013-03-03,2013-03-08,4.0,19425.0,ADVERSE EVENT,DISCONTINUED,Adverse Event,18.0
152,CDISCPILOT01,01-710-1002,1002,710,710,Xanomeline Low Dose,Xanomeline Low Dose,54.0,Xanomeline Low Dose,54.0,19737.0,19741.0,5.0,54.0,270.0,88.0,>80,3.0,YEARS,WHITE,1.0,M,NOT HISPANIC OR LATINO,Y,Y,Y,N,N,N,Y,Y,,25.8,25-<30,165.1,70.3,12.0,17539.0,71.8,>=12,19722.0,2014-01-14,2014-01-18,4.0,19741.0,ADVERSE EVENT,DISCONTINUED,Adverse Event,17.0
153,CDISCPILOT01,01-710-1006,1006,710,710,Xanomeline High Dose,Xanomeline High Dose,81.0,Xanomeline High Dose,81.0,19399.0,19579.0,181.0,77.1,13959.0,77.0,65-80,2.0,YEARS,WHITE,1.0,M,NOT HISPANIC OR LATINO,Y,Y,Y,Y,Y,Y,,,,25.1,25-<30,170.2,72.6,12.0,19033.0,11.6,<12,19385.0,2013-02-10,2013-08-10,12.0,19580.0,COMPLETED,COMPLETED,,12.0
154,CDISCPILOT01,01-710-1021,1021,710,710,Xanomeline High Dose,Xanomeline High Dose,81.0,Xanomeline High Dose,81.0,19628.0,19660.0,33.0,68.7,2268.0,79.0,65-80,2.0,YEARS,BLACK OR AFRICAN AMERICAN,2.0,M,NOT HISPANIC OR LATINO,Y,Y,N,N,N,N,Y,Y,,21.3,<25,162.6,56.3,8.0,19183.0,14.4,>=12,19620.0,2013-09-27,2013-11-12,7.0,19674.0,ADVERSE EVENT,DISCONTINUED,Adverse Event,11.0
155,CDISCPILOT01,01-710-1027,1027,710,710,Placebo,Placebo,5.397605346934028e-79,Placebo,5.397605346934028e-79,19782.0,19964.0,183.0,5.397605346934028e-79,5.397605346934028e-79,83.0,>80,3.0,YEARS,WHITE,1.0,M,NOT HISPANIC OR LATINO,Y,Y,Y,Y,Y,Y,,,,24.4,<25,170.2,70.8,12.0,19027.0,24.0,>=12,19757.0,2014-02-28,2014-08-29,12.0,19964.0,COMPLETED,COMPLETED,,20.0
156,CDISCPILOT01,01-710-1045,1045,710,710,Xanomeline Low Dose,Xanomeline Low Dose,54.0,Xanomeline Low Dose,54.0,19512.0,19583.0,72.0,54.0,3888.0,83.0,>80,3.0,YEARS,WHITE,1.0,F,NOT HISPANIC OR LATINO,Y,Y,Y,Y,N,N,Y,Y,,22.0,<25,162.6,58.1,12.0,18394.0,36.3,>=12,19498.0,2013-06-03,2013-08-17,9.0,19587.0,ADVERSE EVENT,DISCONTINUED,Adverse Event,14.0
157,CDISCPILOT01,01-710-1053,1053,710,710,Xanomeline Low Dose,Xanomeline Low Dose,54.0,Xanomeline Low Dose,54.0,19353.0,19399.0,47.0,54.0,2538.0,84.0,>80,3.0,YEARS,WHITE,1.0,F,NOT HISPANIC OR LATINO,Y,Y,Y,Y,N,N,Y,Y,,20.8,<25,157.5,51.7,12.0,18935.0,13.4,>=12,19342.0,2012-12-26,2013-02-15,8.0,19404.0,ADVERSE EVENT,DISCONTINUED,Adverse Event,20.0
158,CDISCPILOT01,01-710-1060,1060,710,710,Placebo,Placebo,5.397605346934028e-79,Placebo,5.397605346934028e-79,19359.0,19544.0,186.0,5.397605346934028e-79,5.397605346934028e-79,82.0,>80,3.0,YEARS,WHITE,1.0,M,NOT HISPANIC OR LATINO,Y,Y,Y,Y,Y,Y,,,,21.0,<25,182.9,70.3,16.0,18519.0,27.4,>=12,19351.0,2013-01-01,2013-07-05,12.0,19544.0,COMPLETED,COMPLETED,,23.0
159,CDISCPILOT01,01-710-1070,1070,710,710,Xanomeline High Dose,Xanomeline High Dose,81.0,Xanomeline High Dose,81.0,19244.0,19380.0,137.0,78.0,10692.0,85.0,>80,3.0,YEARS,WHITE,1.0,F,NOT HISPANIC OR LATINO,Y,Y,Y,Y,Y,N,Y,Y,,21.8,<25,149.9,49.0,10.0,18513.0,23.7,>=12,19233.0,2012-09-08,2013-02-23,11.0,19412.0,ADVERSE EVENT,DISCONTINUED,Adverse Event,10.0
160,CDISCPILOT01,01-710-1077,1077,710,710,Placebo,Placebo,5.397605346934028e-79,Placebo,5.397605346934028e-79,19679.0,19861.0,183.0,5.397605346934028e-79,5.397605346934028e-79,76.0,65-80,2.0,YEARS,WHITE,1.0,F,NOT HISPANIC OR LATINO,Y,Y,Y,Y,Y,Y,,,,18.5,<25,162.6,49.0,12.0,18789.0,28.8,>=12,19665.0,2013-11-17,2014-05-18,12.0,19861.0,COMPLETED,COMPLETED,,14.0
161,CDISCPILOT01,01-710-1078,1078,710,710,Placebo,Placebo,5.397605346934028e-79,Placebo,5.397605346934028e-79,19618.0,19805.0,188.0,5.397605346934028e-79,5.397605346934028e-79,81.0,>80,3.0,YEARS,WHITE,1.0,F,NOT HISPANIC OR LATINO,Y,Y,Y,Y,Y,Y,,,,18.0,<25,152.4,41.7,12.0,18864.0,24.4,>=12,19607.0,2013-09-17,2014-03-23,12.0,19805.0,COMPLETED,COMPLETED,,21.0
162,CDISCPILOT01,01-710-1083,1083,710,710,Placebo,Placebo,5.397605346934028e-79,Placebo,5.397605346934028e-79,19561.0,19571.0,11.0,5.397605346934028e-79,5.397605346934028e-79,89.0,>80,3.0,YEARS,WHITE,1.0,F,NOT HISPANIC OR LATINO,Y,Y,N,N,N,N,Y,,Y,19.0,<25,157.5,47.2,14.0,18827.0,23.7,>=12,19548.0,2013-07-22,2013-08-03,4.0,19573.0,DEATH,DISCONTINUED,Death,14.0
163,CDISCPILOT01,01-710-1137,1137,710,710,Xanomeline High Dose,Xanomeline High Dose,81.0,Xanomeline High Dose,81.0,19642.0,19675.0,34.0,69.1,2349.0,79.0,65-80,2.0,YEARS,BLACK OR AFRICAN AMERICAN,2.0,F,NOT HISPANIC OR LATINO,Y,Y,N,N,N,N,Y,Y,,24.0,<25,165.1,65.3,16.0,18182.0,47.7,>=12,19634.0,2013-10-11,2013-11-13,7.0,19675.0,ADVERSE EVENT,DISCONTINUED,Adverse Event,18.0
164,CDISCPILOT01,01-710-1142,1142,710,710,Xanomeline High Dose,Xanomeline High Dose,81.0,Xanomeline High Dose,81.0,19268.0,19286.0,19.0,59.7,1134.0,76.0,65-80,2.0,YEARS,WHITE,1.0,F,NOT HISPANIC OR LATINO,Y,Y,Y,N,N,N,Y,Y,,24.8,<25,152.4,57.6,12.0,18531.0,23.6,>=12,19248.0,2012-10-02,2012-10-23,5.0,19289.0,ADVERSE EVENT,DISCONTINUED,Adverse Event,23.0
165,CDISCPILOT01,01-710-1154,1154,710,710,Xanomeline Low Dose,Xanomeline Low Dose,54.0,Xanomeline Low Dose,54.0,19811.0,19840.0,30.0,54.0,1620.0,84.0,>80,3.0,YEARS,WHITE,1.0,M,HISPANIC OR LATINO,Y,Y,Y,N,N,N,Y,Y,,32.3,>=30,160.0,82.6,3.0,17587.0,72.4,>=12,19790.0,2014-03-29,2014-05-09,7.0,19852.0,ADVERSE EVENT,DISCONTINUED,Adverse Event,13.0
166,CDISCPILOT01,01-710-1166,1166,710,710,Xanomeline Low Dose,Xanomeline Low Dose,54.0,Xanomeline Low Dose,54.0,19327.0,19436.0,110.0,54.0,5940.0,81.0,>80,3.0,YEARS,WHITE,1.0,F,NOT HISPANIC OR LATINO,Y,Y,Y,Y,Y,N,Y,Y,,22.1,<25,157.5,54.9,12.0,17480.0,60.1,>=12,19307.0,2012-11-30,2013-03-30,10.0,19447.0,ADVERSE EVENT,DISCONTINUED,Adverse Event,18.0
167,CDISCPILOT01,01-710-1183,1183,710,710,Placebo,Placebo,5.397605346934028e-79,Placebo,5.397605346934028e-79,19678.0,19860.0,183.0,5.397605346934028e-79,5.397605346934028e-79,80.0,65-80,2.0,YEARS,WHITE,1.0,F,NOT HISPANIC OR LATINO,Y,Y,Y,Y,Y,Y,,,,21.2,<25,149.9,47.6,8.0,19291.0,12.0,>=12,19655.0,2013-11-16,2014-05-17,12.0,19860.0,COMPLETED,COMPLETED,,16.0
168,CDISCPILOT01,01-710-1187,1187,710,710,Xanomeline High Dose,Xanomeline High Dose,81.0,Xanomeline High Dose,81.0,19307.0,19490.0,184.0,76.7,14121.0,78.0,65-80,2.0,YEARS,WHITE,1.0,F,NOT HISPANIC OR LATINO,Y,Y,Y,Y,Y,Y,,,,20.8,<25,154.9,49.9,8.0,18557.0,24.2,>=12,19292.0,2012-11-10,2013-05-12,12.0,19490.0,COMPLETED,COMPLETED,,11.0
169,CDISCPILOT01,01-710-1235,1235,710,710,Xanomeline Low Dose,Xanomeline Low Dose,54.0,Xanomeline Low Dose,54.0,19262.0,19444.0,183.0,54.0,9882.0,56.0,<65,1.0,YEARS,WHITE,1.0,F,HISPANIC OR LATINO,Y,Y,Y,Y,Y,Y,,,,33.0,>=30,170.2,95.7,16.0,18234.0,33.4,>=12,19249.0,2012-09-26,2013-03-27,12.0,19444.0,COMPLETED,COMPLETED,,20.0
170,CDISCPILOT01,01-710-1249,1249,710,710,Xanomeline High Dose,Xanomeline High Dose,81.0,Xanomeline High Dose,81.0,19720.0,19902.0,183.0,76.7,14040.0,79.0,65-80,2.0,YEARS,WHITE,1.0,M,NOT HISPANIC OR LATINO,Y,Y,Y,Y,Y,Y,,,,25.4,25-<30,177.8,80.3,12.0,17893.0,59.8,>=12,19711.0,2013-12-28,2014-06-28,12.0,19902.0,COMPLETED,COMPLETED,,20.0
171,CDISCPILOT01,01-710-1264,1264,710,710,Placebo,Placebo,5.397605346934028e-79,Placebo,5.397605346934028e-79,19522.0,19642.0,121.0,5.397605346934028e-79,5.397605346934028e-79,78.0,65-80,2.0,YEARS,WHITE,1.0,M,NOT HISPANIC OR LATINO,Y,Y,Y,Y,Y,N,Y,Y,,29.1,25-<30,167.6,81.7,12.0,18419.0,35.9,>=12,19511.0,2013-06-13,2013-10-12,11.0,19643.0,ADVERSE EVENT,DISCONTINUED,Adverse Event,14.0
172,CDISCPILOT01,01-710-1270,1270,710,710,Xanomeline Low Dose,Xanomeline Low Dose,54.0,Xanomeline Low Dose,54.0,19766.0,19783.0,18.0,54.0,972.0,83.0,>80,3.0,YEARS,WHITE,1.0,F,NOT HISPANIC OR LATINO,Y,Y,Y,N,N,N,Y,Y,,25.6,25-<30,149.9,57.6,12.0,19163.0,19.5,>=12,19755.0,2014-02-12,2014-03-01,4.0,19783.0,ADVERSE EVENT,DISCONTINUED,Adverse Event,11.0
173,CDISCPILOT01,01-710-1271,1271,710,710,Placebo,Placebo,5.397605346934028e-79,Placebo,5.397605346934028e-79,19263.0,19318.0,56.0,5.397605346934028e-79,5.397605346934028e-79,86.0,>80,3.0,YEARS,WHITE,1.0,F,NOT HISPANIC OR LATINO,Y,Y,N,Y,N,N,Y,Y,,21.2,<25,149.9,47.6,16.0,18875.0,12.0,>=12,19240.0,2012-09-27,2012-12-02,8.0,19329.0,ADVERSE EVENT,DISCONTINUED,Adverse Event,18.0
174,CDISCPILOT01,01-710-1278,1278,710,710,Xanomeline High Dose,Xanomeline High Dose,81.0,Xanomeline High Dose,81.0,19351.0,19415.0,65.0,74.8,4860.0,81.0,>80,3.0,YEARS,WHITE,1.0,M,NOT HISPANIC OR LATINO,Y,Y,Y,Y,N,N,Y,Y,,22.7,<25,177.8,71.7,20.0,18969.0,12.2,>=12,19340.0,2012-12-24,2013-03-03,9.0,19420.0,ADVERSE EVENT,DISCONTINUED,Adverse Event,14.0
175,CDISCPILOT01,01-710-1300,1300,710,710,Xanomeline Low Dose,Xanomeline Low Dose,54.0,Xanomeline Low Dose,54.0,19342.0,19404.0,63.0,54.0,3402.0,78.0,65-80,2.0,YEARS,WHITE,1.0,F,NOT HISPANIC OR LATINO,Y,Y,Y,Y,N,N,Y,Y,,20.1,<25,152.4,46.7,12.0,18947.0,12.6,>=12,19331.0,2012-12-15,2013-02-19,9.0,19408.0,ADVERSE EVENT,DISCONTINUED,Adverse Event,13.0
176,CDISCPILOT01,01-710-1314,1314,710,710,Placebo,Placebo,5.397605346934028e-79,Placebo,5.397605346934028e-79,19472.0,19501.0,30.0,5.397605346934028e-79,5.397605346934028e-79,78.0,65-80,2.0,YEARS,WHITE,1.0,F,NOT HISPANIC OR LATINO,Y,Y,N,N,N,N,Y,,,22.6,<25,137.2,42.6,12.0,18731.0,24.3,>=12,19469.0,2013-04-24,2013-05-25,6.0,19503.0,WITHDRAWAL BY SUBJECT,DISCONTINUED,Withdrew Consent,12.0
177,CDISCPILOT01,01-710-1315,1315,710,710,Placebo,Placebo,5.397605346934028e-79,Placebo,5.397605346934028e-79,19416.0,19545.0,130.0,5.397605346934028e-79,5.397605346934028e-79,83.0,>80,3.0,YEARS,WHITE,1.0,F,NOT HISPANIC OR LATINO,Y,Y,Y,Y,Y,N,Y,Y,,24.2,<25,152.4,56.3,12.0,18859.0,17.8,>=12,19401.0,2013-02-27,2013-07-16,11.0,19555.0,ADVERSE EVENT,DISCONTINUED,Adverse Event,12.0
178,CDISCPILOT01,01-710-1354,1354,710,710,Xanomeline High Dose,Xanomeline High Dose,81.0,Xanomeline High Dose,81.0,19308.0,19479.0,172.0,77.1,13257.0,73.0,65-80,2.0,YEARS,WHITE,1.0,M,NOT HISPANIC OR LATINO,Y,Y,Y,Y,Y,Y,,,,26.7,25-<30,182.9,89.4,16.0,18937.0,11.8,<12,19295.0,2012-11-11,2013-05-01,12.0,19479.0,COMPLETED,COMPLETED,,23.0
179,CDISCPILOT01,01-710-1358,1358,710,710,Xanomeline Low Dose,Xanomeline Low Dose,54.0,Xanomeline Low Dose,54.0,19253.0,19398.0,146.0,54.0,7884.0,82.0,>80,3.0,YEARS,WHITE,1.0,M,NOT HISPANIC OR LATINO,Y,Y,Y,Y,Y,Y,Y,,,31.1,>=30,162.6,82.1,6.0,18138.0,36.2,>=12,19238.0,2012-09-17,2013-03-12,12.0,19429.0,WITHDRAWAL BY SUBJECT,DISCONTINUED,Withdrew Consent,13.0
180,CDISCPILOT01,01-710-1368,1368,710,710,Placebo,Placebo,5.397605346934028e-79,Placebo,5.397605346934028e-79,19654.0,19837.0,184.0,5.397605346934028e-79,5.397605346934028e-79,88.0,>80,3.0,YEARS,WHITE,1.0,F,NOT HISPANIC OR LATINO,Y,Y,Y,Y,Y,Y,,,,15.7,<25,147.3,34.0,12.0,18912.0,24.3,>=12,19652.0,2013-10-23,2014-04-24,12.0,19837.0,COMPLETED,COMPLETED,,13.0
181,CDISCPILOT01,01-710-1385,1385,710,710,Xanomeline Low Dose,Xanomeline Low Dose,54.0,Xanomeline Low Dose,54.0,19295.0,19407.0,113.0,54.0,6102.0,77.0,65-80,2.0,YEARS,WHITE,1.0,M,NOT HISPANIC OR LATINO,Y,Y,Y,Y,Y,N,Y,Y,,25.2,25-<30,182.9,84.4,18.0,18928.0,11.8,<12,19287.0,2012-10-29,2013-02-18,10.0,19407.0,ADVERSE EVENT,DISCONTINUED,Adverse Event,14.0
182,CDISCPILOT01,01-710-1408,1408,710,710,Xanomeline High Dose,Xanomeline High Dose,81.0,Xanomeline High Dose,81.0,19363.0,19551.0,189.0,76.1,14391.0,80.0,65-80,2.0,YEARS,WHITE,1.0,M,NOT HISPANIC OR LATINO,Y,Y,Y,Y,Y,Y,,,,34.2,>=30,177.8,108.0,12.0,17514.0,60.5,>=12,19353.0,2013-01-05,2013-07-12,12.0,19551.0,COMPLETED,COMPLETED,,23.0
183,CDISCPILOT01,01-711-1012,1012,711,900,Xanomeline High Dose,Xanomeline High Dose,81.0,Xanomeline High Dose,81.0,19451.0,19477.0,27.0,66.0,1782.0,67.0,65-80,2.0,YEARS,WHITE,1.0,F,NOT HISPANIC OR LATINO,Y,Y,Y,N,N,N,Y,Y,,28.0,25-<30,170.2,81.0,12.0,18833.0,19.9,>=12,19437.0,2013-04-03,2013-05-02,5.0,19480.0,ADVERSE EVENT,DISCONTINUED,Adverse Event,18.0
184,CDISCPILOT01,01-711-1036,1036,711,900,Placebo,Placebo,5.397605346934028e-79,Placebo,5.397605346934028e-79,19203.0,19399.0,197.0,5.397605346934028e-79,5.397605346934028e-79,70.0,65-80,2.0,YEARS,BLACK OR AFRICAN AMERICAN,2.0,M,NOT HISPANIC OR LATINO,Y,Y,Y,Y,Y,Y,,,,23.4,<25,172.0,69.2,9.0,17961.0,40.5,>=12,19194.0,2012-07-29,2013-02-10,12.0,19399.0,COMPLETED,COMPLETED,,23.0
185,CDISCPILOT01,01-711-1143,1143,711,900,Xanomeline Low Dose,Xanomeline Low Dose,54.0,Xanomeline Low Dose,54.0,19451.0,19508.0,58.0,54.0,3132.0,76.0,65-80,2.0,YEARS,WHITE,1.0,F,NOT HISPANIC OR LATINO,Y,Y,Y,Y,N,N,Y,Y,,24.3,<25,163.1,64.6,12.0,18746.0,23.1,>=12,19447.0,2013-04-03,2013-06-01,9.0,19510.0,ADVERSE EVENT,DISCONTINUED,Adverse Event,23.0
186,CDISCPILOT01,01-711-1433,1433,711,900,Xanomeline High Dose,Xanomeline High Dose,81.0,Xanomeline High Dose,81.0,19385.0,19394.0,10.0,54.0,540.0,84.0,>80,3.0,YEARS,WHITE,1.0,F,NOT HISPANIC OR LATINO,Y,Y,N,N,N,N,Y,Y,,20.9,<25,157.5,51.9,12.0,19025.0,11.7,<12,19381.0,2013-01-27,2013-02-06,4.0,19395.0,ADVERSE EVENT,DISCONTINUED,Adverse Event,18.0
187,CDISCPILOT01,01-713-1043,1043,713,713,Xanomeline Low Dose,Xanomeline Low Dose,54.0,Xanomeline Low Dose,54.0,19616.0,19806.0,191.0,54.0,10314.0,78.0,65-80,2.0,YEARS,WHITE,1.0,F,NOT HISPANIC OR LATINO,Y,Y,Y,Y,Y,Y,,,,18.8,<25,165.1,51.3,8.0,18970.0,20.3,>=12,19587.0,2013-09-15,2014-03-24,12.0,19806.0,COMPLETED,COMPLETED,,16.0
188,CDISCPILOT01,01-713-1073,1073,713,713,Xanomeline Low Dose,Xanomeline Low Dose,54.0,Xanomeline Low Dose,54.0,19812.0,20001.0,190.0,54.0,10260.0,74.0,65-80,2.0,YEARS,BLACK OR AFRICAN AMERICAN,2.0,F,NOT HISPANIC OR LATINO,Y,Y,Y,Y,Y,Y,,,,20.3,<25,167.6,56.9,6.0,19408.0,12.8,>=12,19797.0,2014-03-30,2014-10-05,12.0,20001.0,COMPLETED,COMPLETED,,11.0
189,CDISCPILOT01,01-713-1106,1106,713,713,Xanomeline High Dose,Xanomeline High Dose,81.0,Xanomeline High Dose,81.0,19297.0,19484.0,188.0,76.7,14418.0,74.0,65-80,2.0,YEARS,WHITE,1.0,M,NOT HISPANIC OR LATINO,Y,Y,Y,Y,Y,Y,,,,19.6,<25,164.8,53.1,16.0,18278.0,32.6,>=12,19269.0,2012-10-31,2013-05-06,12.0,19484.0,COMPLETED,COMPLETED,,23.0
190,CDISCPILOT01,01-713-1141,1141,713,713,Xanomeline High Dose,Xanomeline High Dose,81.0,Xanomeline High Dose,81.0,19509.0,19540.0,32.0,68.3,2187.0,79.0,65-80,2.0,YEARS,WHITE,1.0,M,NOT HISPANIC OR LATINO,Y,Y,N,N,N,N,Y,Y,,23.5,<25,170.0,68.0,13.0,17129.0,78.0,>=12,19501.0,2013-05-31,2013-08-06,7.0,19576.0,ADVERSE EVENT,DISCONTINUED,Adverse Event,18.0
191,CDISCPILOT01,01-713-1179,1179,713,713,Placebo,Placebo,5.397605346934028e-79,Placebo,5.397605346934028e-79,19579.0,19759.0,181.0,5.397605346934028e-79,5.397605346934028e-79,64.0,<65,1.0,YEARS,WHITE,1.0,F,NOT HISPANIC OR LATINO,Y,Y,Y,Y,Y,Y,,,,20.3,<25,165.1,55.3,12.0,18751.0,26.3,>=12,19550.0,2013-08-09,2014-02-05,12.0,19759.0,COMPLETED,COMPLETED,,21.0
192,CDISCPILOT01,01-713-1209,1209,713,713,Xanomeline High Dose,Xanomeline High Dose,81.0,Xanomeline High Dose,81.0,19505.0,19684.0,180.0,77.0,13851.0,77.0,65-80,2.0,YEARS,WHITE,1.0,F,NOT HISPANIC OR LATINO,Y,Y,Y,Y,Y,Y,,,,19.2,<25,165.1,52.2,12.0,18457.0,34.1,>=12,19494.0,2013-05-27,2013-11-22,12.0,19684.0,COMPLETED,COMPLETED,,23.0
193,CDISCPILOT01,01-713-1256,1256,713,713,Placebo,Placebo,5.397605346934028e-79,Placebo,5.397605346934028e-79,19255.0,19442.0,188.0,5.397605346934028e-79,5.397605346934028e-79,71.0,65-80,2.0,YEARS,WHITE,1.0,M,NOT HISPANIC OR LATINO,Y,Y,Y,Y,Y,Y,,,,23.7,<25,180.3,77.1,16.0,17936.0,43.1,>=12,19246.0,2012-09-19,2013-03-25,12.0,19442.0,COMPLETED,COMPLETED,,13.0
194,CDISCPILOT01,01-713-1269,1269,713,713,Placebo,Placebo,5.397605346934028e-79,Placebo,5.397605346934028e-79,19750.0,19932.0,183.0,5.397605346934028e-79,5.397605346934028e-79,73.0,65-80,2.0,YEARS,WHITE,1.0,M,NOT HISPANIC OR LATINO,Y,Y,Y,Y,Y,Y,,,,21.9,<25,185.4,75.3,16.0,19073.0,21.8,>=12,19737.0,2014-01-27,2014-07-28,12.0,19932.0,COMPLETED,COMPLETED,,23.0
195,CDISCPILOT01,01-713-1448,1448,713,713,Xanomeline Low Dose,Xanomeline Low Dose,54.0,Xanomeline Low Dose,54.0,19742.0,19859.0,118.0,54.0,6372.0,71.0,65-80,2.0,YEARS,WHITE,1.0,F,NOT HISPANIC OR LATINO,Y,Y,Y,Y,Y,N,Y,Y,,25.5,25-<30,175.3,78.5,13.0,17631.0,68.9,>=12,19728.0,2014-01-19,2014-05-17,10.0,19860.0,ADVERSE EVENT,DISCONTINUED,Adverse Event,23.0
196,CDISCPILOT01,01-714-1035,1035,714,900,Placebo,Placebo,5.397605346934028e-79,Placebo,5.397605346934028e-79,19830.0,20012.0,183.0,5.397605346934028e-79,5.397605346934028e-79,88.0,>80,3.0,YEARS,WHITE,1.0,F,NOT HISPANIC OR LATINO,Y,Y,Y,Y,Y,Y,,,,24.6,<25,148.6,54.4,12.0,18719.0,36.1,>=12,19816.0,2014-04-17,2014-10-16,12.0,20012.0,COMPLETED,COMPLETED,,17.0
197,CDISCPILOT01,01-714-1068,1068,714,900,Xanomeline Low Dose,Xanomeline Low Dose,54.0,Xanomeline Low Dose,54.0,19578.0,19639.0,62.0,54.0,3348.0,79.0,65-80,2.0,YEARS,WHITE,1.0,F,NOT HISPANIC OR LATINO,Y,Y,Y,Y,N,N,Y,Y,,23.0,<25,153.7,54.4,9.0,19198.0,12.3,>=12,19570.0,2013-08-08,2013-10-16,9.0,19647.0,ADVERSE EVENT,DISCONTINUED,Adverse Event,18.0
198,CDISCPILOT01,01-714-1195,1195,714,900,Xanomeline Low Dose,Xanomeline Low Dose,54.0,Xanomeline Low Dose,54.0,19474.0,19654.0,181.0,54.0,9774.0,75.0,65-80,2.0,YEARS,WHITE,1.0,M,NOT HISPANIC OR LATINO,Y,Y,Y,Y,Y,Y,,,,28.7,25-<30,172.7,85.7,16.0,18747.0,23.6,>=12,19464.0,2013-04-26,2013-10-23,12.0,19654.0,COMPLETED,COMPLETED,,19.0
199,CDISCPILOT01,01-714-1288,1288,714,900,Xanomeline High Dose,Xanomeline High Dose,81.0,Xanomeline High Dose,81.0,19696.0,19891.0,196.0,76.2,14931.0,77.0,65-80,2.0,YEARS,BLACK OR AFRICAN AMERICAN,2.0,M,NOT HISPANIC OR LATINO,Y,Y,Y,Y,Y,Y,,,,18.7,<25,162.6,49.4,6.0,18212.0,48.5,>=12,19686.0,2013-12-04,2014-06-17,12.0,19891.0,COMPLETED,COMPLETED,,19.0
200,CDISCPILOT01,01-714-1375,1375,714,900,Placebo,Placebo,5.397605346934028e-79,Placebo,5.397605346934028e-79,19415.0,19608.0,194.0,5.397605346934028e-79,5.397605346934028e-79,78.0,65-80,2.0,YEARS,WHITE,1.0,F,NOT HISPANIC OR LATINO,Y,Y,Y,Y,Y,Y,,,,25.6,25-<30,149.9,57.6,10.0,17572.0,60.5,>=12,19412.0,2013-02-26,2013-09-07,12.0,19608.0,COMPLETED,COMPLETED,,17.0
201,CDISCPILOT01,01-714-1425,1425,714,900,Xanomeline High Dose,Xanomeline High Dose,81.0,Xanomeline High Dose,81.0,19585.0,19589.0,5.0,54.0,270.0,81.0,>80,3.0,YEARS,WHITE,1.0,M,NOT HISPANIC OR LATINO,Y,Y,Y,N,N,N,Y,,,29.0,25-<30,177.8,91.6,16.0,18473.0,36.4,>=12,19581.0,2013-08-15,2013-08-22,4.0,19592.0,STUDY TERMINATED BY SPONSOR,DISCONTINUED,Sponsor Decision,22.0
202,CDISCPILOT01,01-715-1085,1085,715,900,Xanomeline Low Dose,Xanomeline Low Dose,54.0,Xanomeline Low Dose,54.0,19405.0,19588.0,184.0,54.0,9936.0,77.0,65-80,2.0,YEARS,WHITE,1.0,F,NOT HISPANIC OR LATINO,Y,Y,Y,Y,Y,Y,,,,21.8,<25,162.6,57.6,14.0,18476.0,30.1,>=12,19392.0,2013-02-16,2013-08-18,12.0,19588.0,COMPLETED,COMPLETED,,23.0
203,CDISCPILOT01,01-715-1107,1107,715,900,Xanomeline Low Dose,Xanomeline Low Dose,54.0,Xanomeline Low Dose,54.0,19415.0,19485.0,71.0,54.0,3834.0,65.0,65-80,2.0,YEARS,WHITE,1.0,M,NOT HISPANIC OR LATINO,Y,Y,Y,Y,N,N,Y,Y,,23.3,<25,172.7,69.4,12.0,18892.0,16.8,>=12,19401.0,2013-02-26,2013-05-13,9.0,19491.0,ADVERSE EVENT,DISCONTINUED,Adverse Event,23.0
204,CDISCPILOT01,01-715-1155,1155,715,900,Placebo,Placebo,5.397605346934028e-79,Placebo,5.397605346934028e-79,19705.0,19748.0,44.0,5.397605346934028e-79,5.397605346934028e-79,59.0,<65,1.0,YEARS,WHITE,1.0,F,NOT HISPANIC OR LATINO,Y,Y,N,N,N,N,Y,,,23.3,<25,165.1,63.5,12.0,18605.0,35.7,>=12,19691.0,2013-12-13,2014-04-26,7.0,19839.0,WITHDRAWAL BY SUBJECT,DISCONTINUED,Withdrew Consent,10.0
205,CDISCPILOT01,01-715-1207,1207,715,900,Placebo,Placebo,5.397605346934028e-79,Placebo,5.397605346934028e-79,19315.0,19505.0,191.0,5.397605346934028e-79,5.397605346934028e-79,78.0,65-80,2.0,YEARS,WHITE,1.0,F,NOT HISPANIC OR LATINO,Y,Y,Y,Y,Y,Y,,,,21.3,<25,152.4,49.4,7.0,18358.0,31.3,>=12,19309.0,2012-11-18,2013-06-01,12.0,19510.0,COMPLETED,COMPLETED,,20.0
206,CDISCPILOT01,01-715-1319,1319,715,900,Xanomeline High Dose,Xanomeline High Dose,81.0,Xanomeline High Dose,81.0,19406.0,19422.0,17.0,57.2,972.0,65.0,65-80,2.0,YEARS,WHITE,1.0,M,NOT HISPANIC OR LATINO,Y,Y,Y,N,N,N,Y,,,25.4,25-<30,172.7,75.8,13.0,17390.0,65.8,>=12,19392.0,2013-02-17,2013-03-18,5.0,19435.0,WITHDRAWAL BY SUBJECT,DISCONTINUED,Withdrew Consent,12.0
207,CDISCPILOT01,01-715-1321,1321,715,900,Xanomeline High Dose,Xanomeline High Dose,81.0,Xanomeline High Dose,81.0,19765.0,19834.0,70.0,74.8,5238.0,75.0,65-80,2.0,YEARS,WHITE,1.0,F,NOT HISPANIC OR LATINO,Y,Y,Y,Y,N,N,Y,Y,,22.7,<25,162.6,59.9,12.0,18596.0,38.3,>=12,19760.0,2014-02-11,2014-04-22,9.0,19835.0,ADVERSE EVENT,DISCONTINUED,Adverse Event,23.0
208,CDISCPILOT01,01-715-1397,1397,715,900,Placebo,Placebo,5.397605346934028e-79,Placebo,5.397605346934028e-79,19451.0,19633.0,183.0,5.397605346934028e-79,5.397605346934028e-79,76.0,65-80,2.0,YEARS,WHITE,1.0,F,NOT HISPANIC OR LATINO,Y,Y,Y,Y,Y,Y,,,,28.9,25-<30,152.4,67.1,11.0,19129.0,10.2,<12,19437.0,2013-04-03,2013-10-03,12.0,19634.0,COMPLETED,COMPLETED,,22.0
209,CDISCPILOT01,01-715-1405,1405,715,900,Xanomeline Low Dose,Xanomeline Low Dose,54.0,Xanomeline Low Dose,54.0,19545.0,19546.0,2.0,54.0,108.0,69.0,65-80,2.0,YEARS,WHITE,1.0,M,NOT HISPANIC OR LATINO,Y,Y,Y,N,N,N,Y,Y,,21.5,<25,180.3,69.9,16.0,16122.0,112.2,>=12,19536.0,2013-07-06,2013-07-13,4.0,19552.0,ADVERSE EVENT,DISCONTINUED,Adverse Event,10.0
210,CDISCPILOT01,01-716-1024,1024,716,716,Placebo,Placebo,5.397605346934028e-79,Placebo,5.397605346934028e-79,19183.0,19378.0,196.0,5.397605346934028e-79,5.397605346934028e-79,87.0,>80,3.0,YEARS,WHITE,1.0,F,NOT HISPANIC OR LATINO,Y,Y,Y,Y,Y,Y,,,,22.7,<25,154.9,54.4,12.0,18962.0,7.2,<12,19180.0,2012-07-09,2013-01-20,12.0,19378.0,COMPLETED,COMPLETED,,22.0
211,CDISCPILOT01,01-716-1026,1026,716,716,Placebo,Placebo,5.397605346934028e-79,Placebo,5.397605346934028e-79,19815.0,20012.0,198.0,5.397605346934028e-79,5.397605346934028e-79,73.0,65-80,2.0,YEARS,WHITE,1.0,F,NOT HISPANIC OR LATINO,Y,Y,Y,Y,Y,Y,,,,33.3,>=30,154.9,79.8,12.0,18507.0,42.7,>=12,19805.0,2014-04-02,2014-10-16,12.0,20012.0,COMPLETED,COMPLETED,,11.0
212,CDISCPILOT01,01-716-1030,1030,716,716,Xanomeline High Dose,Xanomeline High Dose,81.0,Xanomeline High Dose,81.0,19720.0,19725.0,6.0,54.0,324.0,83.0,>80,3.0,YEARS,WHITE,1.0,F,NOT HISPANIC OR LATINO,Y,Y,Y,N,N,N,Y,,,33.2,>=30,150.6,75.3,12.0,18876.0,27.7,>=12,19717.0,2013-12-28,2014-01-10,4.0,19733.0,WITHDRAWAL BY SUBJECT,DISCONTINUED,Withdrew Consent,16.0
213,CDISCPILOT01,01-716-1044,1044,716,716,Placebo,Placebo,5.397605346934028e-79,Placebo,5.397605346934028e-79,19475.0,19665.0,191.0,5.397605346934028e-79,5.397605346934028e-79,74.0,65-80,2.0,YEARS,WHITE,1.0,M,NOT HISPANIC OR LATINO,Y,Y,Y,Y,Y,Y,,,,28.9,25-<30,172.7,86.2,12.0,18707.0,25.0,>=12,19468.0,2013-04-27,2013-11-03,12.0,19665.0,COMPLETED,COMPLETED,,14.0
214,CDISCPILOT01,01-716-1063,1063,716,716,Xanomeline Low Dose,Xanomeline Low Dose,54.0,Xanomeline Low Dose,54.0,19487.0,19595.0,109.0,54.0,5886.0,80.0,65-80,2.0,YEARS,WHITE,1.0,M,NOT HISPANIC OR LATINO,Y,Y,Y,Y,Y,N,Y,Y,,28.4,25-<30,160.0,72.6,8.0,15796.0,121.2,>=12,19484.0,2013-05-09,2013-08-28,10.0,19598.0,ADVERSE EVENT,DISCONTINUED,Adverse Event,17.0
215,CDISCPILOT01,01-716-1071,1071,716,716,Xanomeline High Dose,Xanomeline High Dose,81.0,Xanomeline High Dose,81.0,19517.0,19571.0,55.0,73.6,4050.0,78.0,65-80,2.0,YEARS,WHITE,1.0,F,NOT HISPANIC OR LATINO,Y,Y,Y,Y,N,N,Y,Y,,32.0,>=30,154.9,76.7,12.0,18597.0,30.1,>=12,19512.0,2013-06-08,2013-08-01,8.0,19571.0,ADVERSE EVENT,DISCONTINUED,Adverse Event,20.0
216,CDISCPILOT01,01-716-1094,1094,716,716,Xanomeline Low Dose,Xanomeline Low Dose,54.0,Xanomeline Low Dose,54.0,19346.0,19382.0,37.0,54.0,1998.0,82.0,>80,3.0,YEARS,WHITE,1.0,M,NOT HISPANIC OR LATINO,Y,Y,Y,N,N,N,Y,Y,,28.3,25-<30,168.9,80.7,8.0,17528.0,59.7,>=12,19343.0,2012-12-19,2013-01-26,7.0,19384.0,ADVERSE EVENT,DISCONTINUED,Adverse Event,11.0
217,CDISCPILOT01,01-716-1103,1103,716,716,Xanomeline Low Dose,Xanomeline Low Dose,54.0,Xanomeline Low Dose,54.0,19802.0,19986.0,185.0,54.0,9990.0,79.0,65-80,2.0,YEARS,WHITE,1.0,M,NOT HISPANIC OR LATINO,Y,Y,Y,Y,Y,Y,,,,25.6,25-<30,165.1,69.9,8.0,18815.0,32.4,>=12,19800.0,2014-03-20,2014-09-20,12.0,19986.0,COMPLETED,COMPLETED,,22.0
218,CDISCPILOT01,01-716-1108,1108,716,716,Placebo,Placebo,5.397605346934028e-79,Placebo,5.397605346934028e-79,19401.0,19580.0,180.0,5.397605346934028e-79,5.397605346934028e-79,86.0,>80,3.0,YEARS,WHITE,1.0,F,NOT HISPANIC OR LATINO,Y,Y,Y,Y,Y,Y,,,,26.0,25-<30,142.2,52.6,12.0,19037.0,11.7,<12,19393.0,2013-02-12,2013-08-10,12.0,19580.0,COMPLETED,COMPLETED,,21.0
219,CDISCPILOT01,01-716-1151,1151,716,716,Xanomeline Low Dose,Xanomeline Low Dose,54.0,Xanomeline Low Dose,54.0,19390.0,19489.0,100.0,54.0,5400.0,83.0,>80,3.0,YEARS,WHITE,1.0,F,NOT HISPANIC OR LATINO,Y,Y,Y,Y,Y,N,Y,Y,,19.7,<25,152.4,45.8,18.0,18338.0,34.3,>=12,19381.0,2013-02-01,2013-06-07,10.0,19516.0,ADVERSE EVENT,DISCONTINUED,Adverse Event,22.0
220,CDISCPILOT01,01-716-1157,1157,716,716,Xanomeline Low Dose,Xanomeline Low Dose,54.0,Xanomeline Low Dose,54.0,19633.0,19817.0,185.0,54.0,9990.0,85.0,>80,3.0,YEARS,WHITE,1.0,M,NOT HISPANIC OR LATINO,Y,Y,Y,Y,Y,Y,,,,23.2,<25,160.0,59.4,14.0,17632.0,65.5,>=12,19624.0,2013-10-02,2014-04-05,12.0,19818.0,COMPLETED,COMPLETED,,20.0
221,CDISCPILOT01,01-716-1160,1160,716,716,Placebo,Placebo,5.397605346934028e-79,Placebo,5.397605346934028e-79,19453.0,19642.0,190.0,5.397605346934028e-79,5.397605346934028e-79,83.0,>80,3.0,YEARS,WHITE,1.0,F,NOT HISPANIC OR LATINO,Y,Y,Y,Y,Y,Y,,,,24.1,<25,157.5,59.9,12.0,18782.0,21.7,>=12,19440.0,2013-04-05,2013-10-11,12.0,19642.0,COMPLETED,COMPLETED,,23.0
222,CDISCPILOT01,01-716-1167,1167,716,716,Xanomeline Low Dose,Xanomeline Low Dose,54.0,Xanomeline Low Dose,54.0,19274.0,19460.0,187.0,54.0,10098.0,68.0,65-80,2.0,YEARS,WHITE,1.0,M,NOT HISPANIC OR LATINO,Y,Y,Y,Y,Y,Y,,,,24.8,<25,158.8,62.6,12.0,18996.0,8.9,<12,19266.0,2012-10-08,2013-04-13,12.0,19461.0,COMPLETED,COMPLETED,,19.0
223,CDISCPILOT01,01-716-1177,1177,716,716,Placebo,Placebo,5.397605346934028e-79,Placebo,5.397605346934028e-79,19968.0,20152.0,185.0,5.397605346934028e-79,5.397605346934028e-79,72.0,65-80,2.0,YEARS,WHITE,1.0,M,NOT HISPANIC OR LATINO,Y,Y,Y,Y,Y,Y,,,,27.3,25-<30,177.8,86.2,12.0,19456.0,16.7,>=12,19964.0,2014-09-02,2015-03-05,12.0,20152.0,COMPLETED,COMPLETED,,21.0
224,CDISCPILOT01,01-716-1189,1189,716,716,Xanomeline High Dose,Xanomeline High Dose,81.0,Xanomeline High Dose,81.0,19275.0,19416.0,142.0,78.0,11070.0,81.0,>80,3.0,YEARS,WHITE,1.0,M,NOT HISPANIC OR LATINO,Y,Y,Y,Y,Y,N,Y,Y,,27.4,25-<30,163.8,73.5,9.0,17763.0,49.6,>=12,19273.0,2012-10-09,2013-03-03,11.0,19420.0,ADVERSE EVENT,DISCONTINUED,Adverse Event,21.0
225,CDISCPILOT01,01-716-1229,1229,716,716,Xanomeline High Dose,Xanomeline High Dose,81.0,Xanomeline High Dose,81.0,19409.0,19448.0,40.0,70.9,2835.0,73.0,65-80,2.0,YEARS,WHITE,1.0,F,NOT HISPANIC OR LATINO,Y,Y,Y,N,N,N,Y,Y,,24.6,<25,161.3,64.0,16.0,18848.0,18.3,>=12,19403.0,2013-02-20,2013-04-02,7.0,19450.0,ADVERSE EVENT,DISCONTINUED,Adverse Event,22.0
226,CDISCPILOT01,01-716-1298,1298,716,716,Xanomeline Low Dose,Xanomeline Low Dose,54.0,Xanomeline Low Dose,54.0,19456.0,19537.0,82.0,54.0,4428.0,76.0,65-80,2.0,YEARS,WHITE,1.0,F,NOT HISPANIC OR LATINO,Y,Y,Y,Y,N,N,Y,Y,,29.4,25-<30,156.2,71.7,12.0,17667.0,58.7,>=12,19452.0,2013-04-08,2013-07-06,9.0,19545.0,ADVERSE EVENT,DISCONTINUED,Adverse Event,11.0
227,CDISCPILOT01,01-716-1308,1308,716,716,Placebo,Placebo,5.397605346934028e-79,Placebo,5.397605346934028e-79,19598.0,19638.0,41.0,5.397605346934028e-79,5.397605346934028e-79,76.0,65-80,2.0,YEARS,WHITE,1.0,F,NOT HISPANIC OR LATINO,Y,Y,Y,N,N,N,Y,,,23.6,<25,157.5,58.5,13.0,18218.0,45.2,>=12,19593.0,2013-08-28,2013-10-07,7.0,19638.0,WITHDRAWAL BY SUBJECT,DISCONTINUED,Withdrew Consent,13.0
228,CDISCPILOT01,01-716-1311,1311,716,716,Xanomeline Low Dose,Xanomeline Low Dose,54.0,Xanomeline Low Dose,54.0,19857.0,19987.0,131.0,54.0,7074.0,78.0,65-80,2.0,YEARS,WHITE,1.0,M,NOT HISPANIC OR LATINO,Y,Y,Y,Y,Y,N,Y,,,27.1,25-<30,172.7,80.7,14.0,15872.0,130.8,>=12,19851.0,2014-05-14,2014-09-30,11.0,19996.0,WITHDRAWAL BY SUBJECT,DISCONTINUED,Withdrew Consent,11.0
229,CDISCPILOT01,01-716-1364,1364,716,716,Xanomeline High Dose,Xanomeline High Dose,81.0,Xanomeline High Dose,81.0,19543.0,19732.0,190.0,76.6,14553.0,84.0,>80,3.0,YEARS,WHITE,1.0,F,NOT HISPANIC OR LATINO,Y,Y,Y,Y,Y,Y,,,,20.4,<25,162.6,54.0,12.0,18484.0,34.6,>=12,19536.0,2013-07-04,2014-01-09,12.0,19732.0,COMPLETED,COMPLETED,,17.0
230,CDISCPILOT01,01-716-1373,1373,716,716,Xanomeline High Dose,Xanomeline High Dose,81.0,Xanomeline High Dose,81.0,19341.0,19416.0,76.0,75.0,5697.0,74.0,65-80,2.0,YEARS,WHITE,1.0,M,NOT HISPANIC OR LATINO,Y,Y,Y,Y,N,N,Y,Y,,32.0,>=30,147.3,69.4,16.0,18038.0,42.2,>=12,19321.0,2012-12-14,2013-02-28,9.0,19417.0,ADVERSE EVENT,DISCONTINUED,Adverse Event,23.0
231,CDISCPILOT01,01-716-1418,1418,716,716,Xanomeline High Dose,Xanomeline High Dose,81.0,Xanomeline High Dose,81.0,19483.0,19682.0,200.0,77.1,15417.0,80.0,65-80,2.0,YEARS,WHITE,1.0,F,NOT HISPANIC OR LATINO,Y,Y,Y,Y,Y,Y,,,,25.3,25-<30,165.1,69.0,8.0,18384.0,35.9,>=12,19475.0,2013-05-05,2013-11-20,12.0,19682.0,COMPLETED,COMPLETED,,20.0
232,CDISCPILOT01,01-716-1441,1441,716,716,Placebo,Placebo,5.397605346934028e-79,Placebo,5.397605346934028e-79,19745.0,19926.0,182.0,5.397605346934028e-79,5.397605346934028e-79,85.0,>80,3.0,YEARS,WHITE,1.0,M,NOT HISPANIC OR LATINO,Y,Y,Y,Y,Y,Y,,,,27.5,25-<30,144.8,57.6,10.0,18407.0,43.7,>=12,19736.0,2014-01-22,2014-07-22,12.0,19926.0,COMPLETED,COMPLETED,,22.0
233,CDISCPILOT01,01-716-1447,1447,716,716,Xanomeline High Dose,Xanomeline High Dose,81.0,Xanomeline High Dose,81.0,19708.0,19891.0,184.0,77.2,14202.0,72.0,65-80,2.0,YEARS,WHITE,1.0,F,NOT HISPANIC OR LATINO,Y,Y,Y,Y,Y,Y,,,,24.2,<25,149.9,54.4,14.0,18397.0,42.9,>=12,19702.0,2013-12-16,2014-06-17,12.0,19891.0,COMPLETED,COMPLETED,,22.0
234,CDISCPILOT01,01-717-1004,1004,717,900,Xanomeline Low Dose,Xanomeline Low Dose,54.0,Xanomeline Low Dose,54.0,19737.0,19920.0,184.0,54.0,9936.0,80.0,65-80,2.0,YEARS,WHITE,1.0,F,NOT HISPANIC OR LATINO,Y,Y,Y,Y,Y,Y,,,,30.2,>=30,135.9,55.8,15.0,18390.0,43.9,>=12,19724.0,2014-01-14,2014-07-16,12.0,19920.0,COMPLETED,COMPLETED,,13.0
235,CDISCPILOT01,01-717-1109,1109,717,900,Xanomeline High Dose,Xanomeline High Dose,81.0,Xanomeline High Dose,81.0,19750.0,19932.0,183.0,77.3,14148.0,84.0,>80,3.0,YEARS,WHITE,1.0,M,NOT HISPANIC OR LATINO,Y,Y,Y,Y,Y,Y,,,,13.7,<25,180.3,44.5,17.0,19063.0,22.4,>=12,19743.0,2014-01-27,2014-07-28,12.0,19932.0,COMPLETED,COMPLETED,,20.0
236,CDISCPILOT01,01-717-1174,1174,717,900,Xanomeline High Dose,Xanomeline High Dose,81.0,Xanomeline High Dose,81.0,19380.0,19563.0,184.0,76.5,14067.0,73.0,65-80,2.0,YEARS,WHITE,1.0,M,NOT HISPANIC OR LATINO,Y,Y,Y,Y,Y,Y,,,,24.2,<25,167.6,68.0,16.0,18507.0,28.5,>=12,19374.0,2013-01-22,2013-07-24,12.0,19563.0,COMPLETED,COMPLETED,,22.0
237,CDISCPILOT01,01-717-1201,1201,717,900,Placebo,Placebo,5.397605346934028e-79,Placebo,5.397605346934028e-79,19711.0,19775.0,65.0,5.397605346934028e-79,5.397605346934028e-79,85.0,>80,3.0,YEARS,WHITE,1.0,F,NOT HISPANIC OR LATINO,Y,Y,Y,Y,N,N,Y,,,26.6,25-<30,160.0,68.0,12.0,18709.0,32.7,>=12,19704.0,2013-12-19,2014-02-21,8.0,19775.0,LACK OF EFFICACY,DISCONTINUED,Lack of Efficacy,23.0
238,CDISCPILOT01,01-717-1344,1344,717,900,Placebo,Placebo,5.397605346934028e-79,Placebo,5.397605346934028e-79,19734.0,19796.0,63.0,5.397605346934028e-79,5.397605346934028e-79,64.0,<65,1.0,YEARS,WHITE,1.0,F,NOT HISPANIC OR LATINO,Y,Y,Y,Y,N,N,Y,,,21.7,<25,163.5,58.1,16.0,17785.0,63.7,>=12,19724.0,2014-01-11,2014-03-14,8.0,19796.0,LACK OF EFFICACY,DISCONTINUED,Lack of Efficacy,21.0
239,CDISCPILOT01,01-717-1357,1357,717,900,Xanomeline High Dose,Xanomeline High Dose,81.0,Xanomeline High Dose,81.0,19479.0,19645.0,167.0,78.6,13122.0,77.0,65-80,2.0,YEARS,WHITE,1.0,M,NOT HISPANIC OR LATINO,Y,Y,Y,Y,Y,Y,Y,,,24.7,<25,181.6,81.3,14.0,18313.0,38.0,>=12,19469.0,2013-05-01,2013-10-20,12.0,19651.0,STUDY TERMINATED BY SPONSOR,DISCONTINUED,Sponsor Decision,12.0
240,CDISCPILOT01,01-717-1446,1446,717,900,Xanomeline Low Dose,Xanomeline Low Dose,54.0,Xanomeline Low Dose,54.0,19602.0,19785.0,184.0,54.0,9936.0,75.0,65-80,2.0,YEARS,WHITE,1.0,F,NOT HISPANIC OR LATINO,Y,Y,Y,Y,Y,Y,,,,19.3,<25,156.2,47.2,12.0,18303.0,42.3,>=12,19590.0,2013-09-01,2014-03-04,12.0,19786.0,COMPLETED,COMPLETED,,21.0
241,CDISCPILOT01,01-718-1066,1066,718,718,Xanomeline Low Dose,Xanomeline Low Dose,54.0,Xanomeline Low Dose,54.0,19546.0,19555.0,10.0,54.0,540.0,79.0,65-80,2.0,YEARS,WHITE,1.0,F,NOT HISPANIC OR LATINO,Y,Y,Y,N,N,N,Y,Y,,20.0,<25,158.8,50.4,14.0,18780.0,24.9,>=12,19537.0,2013-07-07,2013-07-30,4.0,19569.0,ADVERSE EVENT,DISCONTINUED,Adverse Event,20.0
242,CDISCPILOT01,01-718-1079,1079,718,718,Xanomeline Low Dose,Xanomeline Low Dose,54.0,Xanomeline Low Dose,54.0,19255.0,19297.0,43.0,54.0,2322.0,67.0,65-80,2.0,YEARS,WHITE,1.0,F,NOT HISPANIC OR LATINO,Y,Y,Y,N,N,N,Y,Y,,20.0,<25,158.8,50.4,16.0,16614.0,86.5,>=12,19247.0,2012-09-19,2012-11-06,7.0,19303.0,ADVERSE EVENT,DISCONTINUED,Adverse Event,17.0
243,CDISCPILOT01,01-718-1101,1101,718,718,Xanomeline High Dose,Xanomeline High Dose,81.0,Xanomeline High Dose,81.0,19406.0,19570.0,165.0,78.5,12960.0,82.0,>80,3.0,YEARS,BLACK OR AFRICAN AMERICAN,2.0,M,NOT HISPANIC OR LATINO,Y,Y,Y,Y,Y,Y,Y,,,23.2,<25,186.2,80.3,12.0,17636.0,57.7,>=12,19390.0,2013-02-17,2013-08-02,12.0,19572.0,STUDY TERMINATED BY SPONSOR,DISCONTINUED,Sponsor Decision,13.0
244,CDISCPILOT01,01-718-1139,1139,718,718,Placebo,Placebo,5.397605346934028e-79,Placebo,5.397605346934028e-79,19497.0,19679.0,183.0,5.397605346934028e-79,5.397605346934028e-79,77.0,65-80,2.0,YEARS,WHITE,1.0,M,NOT HISPANIC OR LATINO,Y,Y,Y,Y,Y,Y,,,,22.4,<25,171.5,65.8,14.0,17620.0,61.2,>=12,19481.0,2013-05-19,2013-11-17,12.0,19679.0,COMPLETED,COMPLETED,,16.0
245,CDISCPILOT01,01-718-1150,1150,718,718,Placebo,Placebo,5.397605346934028e-79,Placebo,5.397605346934028e-79,19377.0,19568.0,192.0,5.397605346934028e-79,5.397605346934028e-79,73.0,65-80,2.0,YEARS,WHITE,1.0,F,NOT HISPANIC OR LATINO,Y,Y,Y,Y,Y,Y,,,,22.5,<25,156.2,54.9,16.0,19063.0,10.1,<12,19370.0,2013-01-19,2013-07-31,12.0,19570.0,COMPLETED,COMPLETED,,22.0
246,CDISCPILOT01,01-718-1170,1170,718,718,Xanomeline Low Dose,Xanomeline Low Dose,54.0,Xanomeline Low Dose,54.0,19617.0,19643.0,27.0,54.0,1458.0,80.0,65-80,2.0,YEARS,WHITE,1.0,F,NOT HISPANIC OR LATINO,Y,Y,Y,N,N,N,Y,Y,,21.8,<25,162.6,57.6,12.0,19230.0,12.0,>=12,19595.0,2013-09-16,2013-11-03,5.0,19665.0,ADVERSE EVENT,DISCONTINUED,Adverse Event,19.0
247,CDISCPILOT01,01-718-1172,1172,718,718,Placebo,Placebo,5.397605346934028e-79,Placebo,5.397605346934028e-79,19622.0,19691.0,70.0,5.397605346934028e-79,5.397605346934028e-79,74.0,65-80,2.0,YEARS,WHITE,1.0,M,NOT HISPANIC OR LATINO,Y,Y,Y,Y,N,N,Y,,,21.9,<25,174.0,66.2,21.0,18901.0,23.5,>=12,19616.0,2013-09-21,2013-11-29,9.0,19691.0,WITHDRAWAL BY SUBJECT,DISCONTINUED,Withdrew Consent,10.0
248,CDISCPILOT01,01-718-1250,1250,718,718,Xanomeline Low Dose,Xanomeline Low Dose,54.0,Xanomeline Low Dose,54.0,19622.0,19754.0,133.0,54.0,7182.0,82.0,>80,3.0,YEARS,WHITE,1.0,F,HISPANIC OR LATINO,Y,Y,Y,Y,Y,N,Y,Y,,23.6,<25,157.5,58.5,21.0,17764.0,60.1,>=12,19591.0,2013-09-21,2014-02-08,11.0,19762.0,ADVERSE EVENT,DISCONTINUED,Adverse Event,18.0
249,CDISCPILOT01,01-718-1254,1254,718,718,Xanomeline Low Dose,Xanomeline Low Dose,54.0,Xanomeline Low Dose,54.0,19549.0,19732.0,184.0,54.0,9936.0,78.0,65-80,2.0,YEARS,WHITE,1.0,M,HISPANIC OR LATINO,Y,Y,Y,Y,Y,Y,,,,28.3,25-<30,170.2,82.1,18.0,18882.0,21.6,>=12,19537.0,2013-07-10,2014-01-09,12.0,19732.0,COMPLETED,COMPLETED,,16.0
250,CDISCPILOT01,01-718-1328,1328,718,718,Xanomeline High Dose,Xanomeline High Dose,81.0,Xanomeline High Dose,81.0,19390.0,19466.0,77.0,76.1,5859.0,86.0,>80,3.0,YEARS,WHITE,1.0,M,NOT HISPANIC OR LATINO,Y,Y,Y,Y,N,N,Y,,,21.9,<25,170.2,63.5,12.0,18273.0,36.6,>=12,19386.0,2013-02-01,2013-05-01,9.0,19479.0,WITHDRAWAL BY SUBJECT,DISCONTINUED,Withdrew Consent,13.0
251,CDISCPILOT01,01-718-1355,1355,718,718,Placebo,Placebo,5.397605346934028e-79,Placebo,5.397605346934028e-79,19417.0,19599.0,183.0,5.397605346934028e-79,5.397605346934028e-79,79.0,65-80,2.0,YEARS,WHITE,1.0,M,NOT HISPANIC OR LATINO,Y,Y,Y,Y,Y,Y,,,,20.8,<25,167.6,58.5,15.0,17871.0,50.3,>=12,19401.0,2013-02-28,2013-08-29,12.0,19599.0,COMPLETED,COMPLETED,,16.0
252,CDISCPILOT01,01-718-1371,1371,718,718,Xanomeline High Dose,Xanomeline High Dose,81.0,Xanomeline High Dose,81.0,19474.0,19571.0,98.0,77.4,7587.0,69.0,65-80,2.0,YEARS,WHITE,1.0,F,NOT HISPANIC OR LATINO,Y,Y,Y,Y,N,N,Y,Y,,27.8,25-<30,154.9,66.7,10.0,19393.0,2.2,<12,19459.0,2013-04-26,2013-08-08,9.0,19578.0,ADVERSE EVENT,DISCONTINUED,Adverse Event,16.0
253,CDISCPILOT01,01-718-1427,1427,718,718,Xanomeline High Dose,Xanomeline High Dose,81.0,Xanomeline High Dose,81.0,19344.0,19400.0,57.0,73.9,4212.0,74.0,65-80,2.0,YEARS,BLACK OR AFRICAN AMERICAN,2.0,F,NOT HISPANIC OR LATINO,Y,Y,Y,Y,N,N,Y,,,20.5,<25,158.8,51.7,16.0,18385.0,31.4,>=12,19340.0,2012-12-17,2013-02-18,8.0,19407.0,LACK OF EFFICACY,DISCONTINUED,Lack of Efficacy,19.0
